#
# Results on Mon, 24 Feb 2025 22:42:00 GMT
# USER AGENT: Mozilla/5.0 (Macintosh; Intel Mac OS X 10_15_7) AppleWebKit/537.36 (KHTML, like Gecko) Chrome/133.0.0.0 Safari/537.36
# Design number was non-random = 17
#
# Columns below this comment are as follows:
# 1. Results reception time.
# 2. MD5 hash of participant's IP address.
# 3. Controller name.
# 4. Order number of item.
# 5. Inner element number.
# 6. Label.
# 7. Latin Square Group.
# 8. PennElementType.
# 9. PennElementName.
# 10. Parameter.
# 11. Value.
# 12. EventTime.
# 13. TrialNumber.
# 14. AnswerRT.
# 15. DialogueRT.
# 16. A2.
# 17. A1.
# 18. D3.
# 19. D2.
# 20. D1.
# 21. Condition.
# 22. ConditionName.
# 23. Answer.
# 24. Inference.
# 25. Item.
# 26. Group.
# 27. Type.
# 28. Comments.
1740436920,de3374b2792d01d18506c85eb3330d0e,PennController,1,0,intro,NULL,PennController,0,_Trial_,Start,1740435439138,undefined,undefined,undefined,undefined,undefined,undefined,undefined,undefined,undefined,undefined,undefined,undefined,undefined,undefined,undefined,NULL
1740436920,de3374b2792d01d18506c85eb3330d0e,PennController,1,0,intro,NULL,PennController,0,_Header_,Start,1740435439138,undefined,undefined,undefined,undefined,undefined,undefined,undefined,undefined,undefined,undefined,undefined,undefined,undefined,undefined,undefined,NULL
1740436920,de3374b2792d01d18506c85eb3330d0e,PennController,1,0,intro,NULL,PennController,0,_Header_,End,1740435439139,undefined,undefined,undefined,undefined,undefined,undefined,undefined,undefined,undefined,undefined,undefined,undefined,undefined,undefined,undefined,NULL
1740436920,de3374b2792d01d18506c85eb3330d0e,PennController,1,0,intro,NULL,PennController,0,_Trial_,End,1740436384803,undefined,undefined,undefined,undefined,undefined,undefined,undefined,undefined,undefined,undefined,undefined,undefined,undefined,undefined,undefined,NULL
1740436920,de3374b2792d01d18506c85eb3330d0e,PennController,2,0,consent,NULL,PennController,1,_Trial_,Start,1740436384805,undefined,undefined,undefined,undefined,undefined,undefined,undefined,undefined,undefined,undefined,undefined,undefined,undefined,undefined,undefined,NULL
1740436920,de3374b2792d01d18506c85eb3330d0e,PennController,2,0,consent,NULL,PennController,1,_Header_,Start,1740436384805,undefined,undefined,undefined,undefined,undefined,undefined,undefined,undefined,undefined,undefined,undefined,undefined,undefined,undefined,undefined,NULL
1740436920,de3374b2792d01d18506c85eb3330d0e,PennController,2,0,consent,NULL,PennController,1,_Header_,End,1740436384806,undefined,undefined,undefined,undefined,undefined,undefined,undefined,undefined,undefined,undefined,undefined,undefined,undefined,undefined,undefined,NULL
1740436920,de3374b2792d01d18506c85eb3330d0e,PennController,2,0,consent,NULL,PennController,1,_Trial_,End,1740436409572,undefined,undefined,undefined,undefined,undefined,undefined,undefined,undefined,undefined,undefined,undefined,undefined,undefined,undefined,undefined,NULL
1740436920,de3374b2792d01d18506c85eb3330d0e,PennController,3,0,demo,NULL,PennController,2,_Trial_,Start,1740436409574,undefined,undefined,undefined,undefined,undefined,undefined,undefined,undefined,undefined,undefined,undefined,undefined,undefined,undefined,undefined,NULL
1740436920,de3374b2792d01d18506c85eb3330d0e,PennController,3,0,demo,NULL,PennController,2,_Header_,Start,1740436409574,undefined,undefined,undefined,undefined,undefined,undefined,undefined,undefined,undefined,undefined,undefined,undefined,undefined,undefined,undefined,NULL
1740436920,de3374b2792d01d18506c85eb3330d0e,PennController,3,0,demo,NULL,PennController,2,_Header_,End,1740436409574,undefined,undefined,undefined,undefined,undefined,undefined,undefined,undefined,undefined,undefined,undefined,undefined,undefined,undefined,undefined,NULL
1740436920,de3374b2792d01d18506c85eb3330d0e,PennController,3,0,demo,NULL,TextInput,age,First,,1740436415271,undefined,undefined,undefined,undefined,undefined,undefined,undefined,undefined,undefined,undefined,undefined,undefined,undefined,undefined,undefined,1
1740436920,de3374b2792d01d18506c85eb3330d0e,PennController,3,0,demo,NULL,TextInput,gender,First,,1740436416820,undefined,undefined,undefined,undefined,undefined,undefined,undefined,undefined,undefined,undefined,undefined,undefined,undefined,undefined,undefined,Shift
1740436920,de3374b2792d01d18506c85eb3330d0e,PennController,3,0,demo,NULL,TextInput,geo,First,,1740436422954,undefined,undefined,undefined,undefined,undefined,undefined,undefined,undefined,undefined,undefined,undefined,undefined,undefined,undefined,undefined,Shift
1740436920,de3374b2792d01d18506c85eb3330d0e,PennController,3,0,demo,NULL,TextInput,comp,First,,1740436448844,undefined,undefined,undefined,undefined,undefined,undefined,undefined,undefined,undefined,undefined,undefined,undefined,undefined,undefined,undefined,Shift
1740436920,de3374b2792d01d18506c85eb3330d0e,PennController,3,0,demo,NULL,TextInput,language,First,,1740436451645,undefined,undefined,undefined,undefined,undefined,undefined,undefined,undefined,undefined,undefined,undefined,undefined,undefined,undefined,undefined,Shift
1740436920,de3374b2792d01d18506c85eb3330d0e,PennController,3,0,demo,NULL,TextInput,otherlg,First,,1740436453882,undefined,undefined,undefined,undefined,undefined,undefined,undefined,undefined,undefined,undefined,undefined,undefined,undefined,undefined,undefined,Shift
1740436920,de3374b2792d01d18506c85eb3330d0e,PennController,3,0,demo,NULL,TextInput,age,Final,18,1740436477619,undefined,undefined,undefined,undefined,undefined,undefined,undefined,undefined,undefined,undefined,undefined,undefined,undefined,undefined,undefined,NULL
1740436920,de3374b2792d01d18506c85eb3330d0e,PennController,3,0,demo,NULL,TextInput,gender,Final,Female,1740436477619,undefined,undefined,undefined,undefined,undefined,undefined,undefined,undefined,undefined,undefined,undefined,undefined,undefined,undefined,undefined,NULL
1740436920,de3374b2792d01d18506c85eb3330d0e,PennController,3,0,demo,NULL,TextInput,geo,Final,College Park%2C Maryland,1740436477619,undefined,undefined,undefined,undefined,undefined,undefined,undefined,undefined,undefined,undefined,undefined,undefined,undefined,undefined,undefined,NULL
1740436920,de3374b2792d01d18506c85eb3330d0e,PennController,3,0,demo,NULL,TextInput,comp,Final,Mac,1740436477619,undefined,undefined,undefined,undefined,undefined,undefined,undefined,undefined,undefined,undefined,undefined,undefined,undefined,undefined,undefined,NULL
1740436920,de3374b2792d01d18506c85eb3330d0e,PennController,3,0,demo,NULL,TextInput,language,Final,English,1740436477619,undefined,undefined,undefined,undefined,undefined,undefined,undefined,undefined,undefined,undefined,undefined,undefined,undefined,undefined,undefined,NULL
1740436920,de3374b2792d01d18506c85eb3330d0e,PennController,3,0,demo,NULL,TextInput,otherlg,Final,Cantonese,1740436477620,undefined,undefined,undefined,undefined,undefined,undefined,undefined,undefined,undefined,undefined,undefined,undefined,undefined,undefined,undefined,NULL
1740436920,de3374b2792d01d18506c85eb3330d0e,PennController,3,0,demo,NULL,PennController,2,_Trial_,End,1740436477621,undefined,undefined,undefined,undefined,undefined,undefined,undefined,undefined,undefined,undefined,undefined,undefined,undefined,undefined,undefined,NULL
1740436920,de3374b2792d01d18506c85eb3330d0e,PennController,4,0,inst-1,NULL,PennController,3,_Trial_,Start,1740436477625,undefined,undefined,undefined,undefined,undefined,undefined,undefined,undefined,undefined,undefined,undefined,undefined,undefined,undefined,undefined,NULL
1740436920,de3374b2792d01d18506c85eb3330d0e,PennController,4,0,inst-1,NULL,PennController,3,_Header_,Start,1740436477625,undefined,undefined,undefined,undefined,undefined,undefined,undefined,undefined,undefined,undefined,undefined,undefined,undefined,undefined,undefined,NULL
1740436920,de3374b2792d01d18506c85eb3330d0e,PennController,4,0,inst-1,NULL,PennController,3,_Header_,End,1740436477625,undefined,undefined,undefined,undefined,undefined,undefined,undefined,undefined,undefined,undefined,undefined,undefined,undefined,undefined,undefined,NULL
1740436920,de3374b2792d01d18506c85eb3330d0e,PennController,4,0,inst-1,NULL,PennController,3,_Trial_,End,1740436517493,undefined,undefined,undefined,undefined,undefined,undefined,undefined,undefined,undefined,undefined,undefined,undefined,undefined,undefined,undefined,NULL
1740436920,de3374b2792d01d18506c85eb3330d0e,PennController,5,0,inst-3,NULL,PennController,9,_Trial_,Start,1740436517495,1,6952,4,... the flights must have been delayed.,... the flights might have been delayed.,Well%2C if it was foggy%2C ...,My friend from Oliver just said it was foggy early today. ,Whenever it’s foggy%2C flights from Oliver Airport are delayed.,practice,obvious_example,practice,practice,1001,practice,practice,NULL
1740436920,de3374b2792d01d18506c85eb3330d0e,PennController,5,0,inst-3,NULL,PennController,9,_Header_,Start,1740436517495,1,6952,4,... the flights must have been delayed.,... the flights might have been delayed.,Well%2C if it was foggy%2C ...,My friend from Oliver just said it was foggy early today. ,Whenever it’s foggy%2C flights from Oliver Airport are delayed.,practice,obvious_example,practice,practice,1001,practice,practice,NULL
1740436920,de3374b2792d01d18506c85eb3330d0e,PennController,5,0,inst-3,NULL,PennController,9,_Header_,End,1740436517495,1,6952,4,... the flights must have been delayed.,... the flights might have been delayed.,Well%2C if it was foggy%2C ...,My friend from Oliver just said it was foggy early today. ,Whenever it’s foggy%2C flights from Oliver Airport are delayed.,practice,obvious_example,practice,practice,1001,practice,practice,NULL
1740436920,de3374b2792d01d18506c85eb3330d0e,PennController,5,0,inst-3,NULL,Selector,comparison,Selection,a2,1740436547963,1,6952,4,... the flights must have been delayed.,... the flights might have been delayed.,Well%2C if it was foggy%2C ...,My friend from Oliver just said it was foggy early today. ,Whenever it’s foggy%2C flights from Oliver Airport are delayed.,practice,obvious_example,practice,practice,1001,practice,practice,a2;a1
1740436920,de3374b2792d01d18506c85eb3330d0e,PennController,5,0,inst-3,NULL,PennController,9,_Trial_,End,1740436547966,1,6952,4,... the flights must have been delayed.,... the flights might have been delayed.,Well%2C if it was foggy%2C ...,My friend from Oliver just said it was foggy early today. ,Whenever it’s foggy%2C flights from Oliver Airport are delayed.,practice,obvious_example,practice,practice,1001,practice,practice,NULL
1740436920,de3374b2792d01d18506c85eb3330d0e,PennController,6,0,inst-4,NULL,PennController,4,_Trial_,Start,1740436547968,1,6952,4,... the flights must have been delayed.,... the flights might have been delayed.,Well%2C if it was foggy%2C ...,My friend from Oliver just said it was foggy early today. ,Whenever it’s foggy%2C flights from Oliver Airport are delayed.,practice,obvious_example,practice,practice,1001,practice,practice,NULL
1740436920,de3374b2792d01d18506c85eb3330d0e,PennController,6,0,inst-4,NULL,PennController,4,_Header_,Start,1740436547968,1,6952,4,... the flights must have been delayed.,... the flights might have been delayed.,Well%2C if it was foggy%2C ...,My friend from Oliver just said it was foggy early today. ,Whenever it’s foggy%2C flights from Oliver Airport are delayed.,practice,obvious_example,practice,practice,1001,practice,practice,NULL
1740436920,de3374b2792d01d18506c85eb3330d0e,PennController,6,0,inst-4,NULL,PennController,4,_Header_,End,1740436547968,1,6952,4,... the flights must have been delayed.,... the flights might have been delayed.,Well%2C if it was foggy%2C ...,My friend from Oliver just said it was foggy early today. ,Whenever it’s foggy%2C flights from Oliver Airport are delayed.,practice,obvious_example,practice,practice,1001,practice,practice,NULL
1740436920,de3374b2792d01d18506c85eb3330d0e,PennController,6,0,inst-4,NULL,PennController,4,_Trial_,End,1740436551249,1,6952,4,... the flights must have been delayed.,... the flights might have been delayed.,Well%2C if it was foggy%2C ...,My friend from Oliver just said it was foggy early today. ,Whenever it’s foggy%2C flights from Oliver Airport are delayed.,practice,obvious_example,practice,practice,1001,practice,practice,NULL
1740436920,de3374b2792d01d18506c85eb3330d0e,PennController,7,0,inst-5,NULL,PennController,10,_Trial_,Start,1740436551250,2,1742,2,... the trails must have been muddy.,... the trails might have been muddy.,Well%2C if it rained a lot%2C ...,It rained a lot on the Billy Goat trail last week.,When it rains a lot%2C the Billy Goat trail gets really muddy.,practice,negobvious_example,practice,practice,1002,practice,practice,NULL
1740436920,de3374b2792d01d18506c85eb3330d0e,PennController,7,0,inst-5,NULL,PennController,10,_Header_,Start,1740436551250,2,1742,2,... the trails must have been muddy.,... the trails might have been muddy.,Well%2C if it rained a lot%2C ...,It rained a lot on the Billy Goat trail last week.,When it rains a lot%2C the Billy Goat trail gets really muddy.,practice,negobvious_example,practice,practice,1002,practice,practice,NULL
1740436920,de3374b2792d01d18506c85eb3330d0e,PennController,7,0,inst-5,NULL,PennController,10,_Header_,End,1740436551250,2,1742,2,... the trails must have been muddy.,... the trails might have been muddy.,Well%2C if it rained a lot%2C ...,It rained a lot on the Billy Goat trail last week.,When it rains a lot%2C the Billy Goat trail gets really muddy.,practice,negobvious_example,practice,practice,1002,practice,practice,NULL
1740436920,de3374b2792d01d18506c85eb3330d0e,PennController,7,0,inst-5,NULL,Selector,comparison,Selection,a2,1740436560852,2,1742,2,... the trails must have been muddy.,... the trails might have been muddy.,Well%2C if it rained a lot%2C ...,It rained a lot on the Billy Goat trail last week.,When it rains a lot%2C the Billy Goat trail gets really muddy.,practice,negobvious_example,practice,practice,1002,practice,practice,a2;a1
1740436920,de3374b2792d01d18506c85eb3330d0e,PennController,7,0,inst-5,NULL,PennController,10,_Trial_,End,1740436560853,2,1742,2,... the trails must have been muddy.,... the trails might have been muddy.,Well%2C if it rained a lot%2C ...,It rained a lot on the Billy Goat trail last week.,When it rains a lot%2C the Billy Goat trail gets really muddy.,practice,negobvious_example,practice,practice,1002,practice,practice,NULL
1740436920,de3374b2792d01d18506c85eb3330d0e,PennController,8,0,inst-6,NULL,PennController,5,_Trial_,Start,1740436560854,2,1742,2,... the trails must have been muddy.,... the trails might have been muddy.,Well%2C if it rained a lot%2C ...,It rained a lot on the Billy Goat trail last week.,When it rains a lot%2C the Billy Goat trail gets really muddy.,practice,negobvious_example,practice,practice,1002,practice,practice,NULL
1740436920,de3374b2792d01d18506c85eb3330d0e,PennController,8,0,inst-6,NULL,PennController,5,_Header_,Start,1740436560854,2,1742,2,... the trails must have been muddy.,... the trails might have been muddy.,Well%2C if it rained a lot%2C ...,It rained a lot on the Billy Goat trail last week.,When it rains a lot%2C the Billy Goat trail gets really muddy.,practice,negobvious_example,practice,practice,1002,practice,practice,NULL
1740436920,de3374b2792d01d18506c85eb3330d0e,PennController,8,0,inst-6,NULL,PennController,5,_Header_,End,1740436560854,2,1742,2,... the trails must have been muddy.,... the trails might have been muddy.,Well%2C if it rained a lot%2C ...,It rained a lot on the Billy Goat trail last week.,When it rains a lot%2C the Billy Goat trail gets really muddy.,practice,negobvious_example,practice,practice,1002,practice,practice,NULL
1740436920,de3374b2792d01d18506c85eb3330d0e,PennController,8,0,inst-6,NULL,PennController,5,_Trial_,End,1740436564944,2,1742,2,... the trails must have been muddy.,... the trails might have been muddy.,Well%2C if it rained a lot%2C ...,It rained a lot on the Billy Goat trail last week.,When it rains a lot%2C the Billy Goat trail gets really muddy.,practice,negobvious_example,practice,practice,1002,practice,practice,NULL
1740436920,de3374b2792d01d18506c85eb3330d0e,PennController,10,0,prac-rest,NULL,PennController,12,_Trial_,Start,1740436564946,3,7479,5,... they must have run out of pad Thai.,... they might have run out of pad Thai.,If it was that crowded%2C ...,That Thai place was packed on Friday night.,When a restaurant gets busy%2C they sometimes run out of popular dishes.,practice,practice_2,practice,practice,1004,practice,practice,NULL
1740436920,de3374b2792d01d18506c85eb3330d0e,PennController,10,0,prac-rest,NULL,PennController,12,_Header_,Start,1740436564946,3,7479,5,... they must have run out of pad Thai.,... they might have run out of pad Thai.,If it was that crowded%2C ...,That Thai place was packed on Friday night.,When a restaurant gets busy%2C they sometimes run out of popular dishes.,practice,practice_2,practice,practice,1004,practice,practice,NULL
1740436920,de3374b2792d01d18506c85eb3330d0e,PennController,10,0,prac-rest,NULL,PennController,12,_Header_,End,1740436564946,3,7479,5,... they must have run out of pad Thai.,... they might have run out of pad Thai.,If it was that crowded%2C ...,That Thai place was packed on Friday night.,When a restaurant gets busy%2C they sometimes run out of popular dishes.,practice,practice_2,practice,practice,1004,practice,practice,NULL
1740436920,de3374b2792d01d18506c85eb3330d0e,PennController,10,0,prac-rest,NULL,Selector,comparison,Selection,a1,1740436581129,3,7479,5,... they must have run out of pad Thai.,... they might have run out of pad Thai.,If it was that crowded%2C ...,That Thai place was packed on Friday night.,When a restaurant gets busy%2C they sometimes run out of popular dishes.,practice,practice_2,practice,practice,1004,practice,practice,a1;a2
1740436920,de3374b2792d01d18506c85eb3330d0e,PennController,10,0,prac-rest,NULL,PennController,12,_Trial_,End,1740436581131,3,7479,5,... they must have run out of pad Thai.,... they might have run out of pad Thai.,If it was that crowded%2C ...,That Thai place was packed on Friday night.,When a restaurant gets busy%2C they sometimes run out of popular dishes.,practice,practice_2,practice,practice,1004,practice,practice,NULL
1740436920,de3374b2792d01d18506c85eb3330d0e,PennController,9,0,prac-rest,NULL,PennController,11,_Trial_,Start,1740436581133,4,8127,3,... the lines must have been long.,... the lines might have been long.,If it's got good reviews%2C ...,That Marvel movie had a 90% score.,When a movie receives high ratings%2C the lines at my local cinema are long.,practice,practice_1,practice,practice,1003,practice,practice,NULL
1740436920,de3374b2792d01d18506c85eb3330d0e,PennController,9,0,prac-rest,NULL,PennController,11,_Header_,Start,1740436581133,4,8127,3,... the lines must have been long.,... the lines might have been long.,If it's got good reviews%2C ...,That Marvel movie had a 90% score.,When a movie receives high ratings%2C the lines at my local cinema are long.,practice,practice_1,practice,practice,1003,practice,practice,NULL
1740436920,de3374b2792d01d18506c85eb3330d0e,PennController,9,0,prac-rest,NULL,PennController,11,_Header_,End,1740436581133,4,8127,3,... the lines must have been long.,... the lines might have been long.,If it's got good reviews%2C ...,That Marvel movie had a 90% score.,When a movie receives high ratings%2C the lines at my local cinema are long.,practice,practice_1,practice,practice,1003,practice,practice,NULL
1740436920,de3374b2792d01d18506c85eb3330d0e,PennController,9,0,prac-rest,NULL,Selector,comparison,Selection,a2,1740436599525,4,8127,3,... the lines must have been long.,... the lines might have been long.,If it's got good reviews%2C ...,That Marvel movie had a 90% score.,When a movie receives high ratings%2C the lines at my local cinema are long.,practice,practice_1,practice,practice,1003,practice,practice,a2;a1
1740436920,de3374b2792d01d18506c85eb3330d0e,PennController,9,0,prac-rest,NULL,PennController,11,_Trial_,End,1740436599527,4,8127,3,... the lines must have been long.,... the lines might have been long.,If it's got good reviews%2C ...,That Marvel movie had a 90% score.,When a movie receives high ratings%2C the lines at my local cinema are long.,practice,practice_1,practice,practice,1003,practice,practice,NULL
1740436920,de3374b2792d01d18506c85eb3330d0e,PennController,11,0,prac-rest,NULL,PennController,13,_Trial_,Start,1740436599528,5,1425,3,... she must have had big news to share.,... she might have had big news to share.,Well%2C if she called%2C ...,I just missed a call from her.,She always calls home when she has exciting news to share.,practice,practice_3 ,practice,practice,1005,practice,practice,NULL
1740436920,de3374b2792d01d18506c85eb3330d0e,PennController,11,0,prac-rest,NULL,PennController,13,_Header_,Start,1740436599528,5,1425,3,... she must have had big news to share.,... she might have had big news to share.,Well%2C if she called%2C ...,I just missed a call from her.,She always calls home when she has exciting news to share.,practice,practice_3 ,practice,practice,1005,practice,practice,NULL
1740436920,de3374b2792d01d18506c85eb3330d0e,PennController,11,0,prac-rest,NULL,PennController,13,_Header_,End,1740436599529,5,1425,3,... she must have had big news to share.,... she might have had big news to share.,Well%2C if she called%2C ...,I just missed a call from her.,She always calls home when she has exciting news to share.,practice,practice_3 ,practice,practice,1005,practice,practice,NULL
1740436920,de3374b2792d01d18506c85eb3330d0e,PennController,11,0,prac-rest,NULL,Selector,comparison,Selection,a2,1740436608113,5,1425,3,... she must have had big news to share.,... she might have had big news to share.,Well%2C if she called%2C ...,I just missed a call from her.,She always calls home when she has exciting news to share.,practice,practice_3 ,practice,practice,1005,practice,practice,a1;a2
1740436920,de3374b2792d01d18506c85eb3330d0e,PennController,11,0,prac-rest,NULL,PennController,13,_Trial_,End,1740436608115,5,1425,3,... she must have had big news to share.,... she might have had big news to share.,Well%2C if she called%2C ...,I just missed a call from her.,She always calls home when she has exciting news to share.,practice,practice_3 ,practice,practice,1005,practice,practice,NULL
1740436920,de3374b2792d01d18506c85eb3330d0e,PennController,12,0,exp-start,NULL,PennController,6,_Trial_,Start,1740436608117,5,1425,3,... she must have had big news to share.,... she might have had big news to share.,Well%2C if she called%2C ...,I just missed a call from her.,She always calls home when she has exciting news to share.,practice,practice_3 ,practice,practice,1005,practice,practice,NULL
1740436920,de3374b2792d01d18506c85eb3330d0e,PennController,12,0,exp-start,NULL,PennController,6,_Header_,Start,1740436608117,5,1425,3,... she must have had big news to share.,... she might have had big news to share.,Well%2C if she called%2C ...,I just missed a call from her.,She always calls home when she has exciting news to share.,practice,practice_3 ,practice,practice,1005,practice,practice,NULL
1740436920,de3374b2792d01d18506c85eb3330d0e,PennController,12,0,exp-start,NULL,PennController,6,_Header_,End,1740436608117,5,1425,3,... she must have had big news to share.,... she might have had big news to share.,Well%2C if she called%2C ...,I just missed a call from her.,She always calls home when she has exciting news to share.,practice,practice_3 ,practice,practice,1005,practice,practice,NULL
1740436920,de3374b2792d01d18506c85eb3330d0e,PennController,12,0,exp-start,NULL,PennController,6,_Trial_,End,1740436611759,5,1425,3,... she must have had big news to share.,... she might have had big news to share.,Well%2C if she called%2C ...,I just missed a call from her.,She always calls home when she has exciting news to share.,practice,practice_3 ,practice,practice,1005,practice,practice,NULL
1740436920,de3374b2792d01d18506c85eb3330d0e,PennController,28,0,check,NULL,PennController,28,_Trial_,Start,1740436611761,6,1429,3,... he passed the test.,... he failed the test.,Well%2C if he scored 75%%2C ...,Oh%2C my cousin took the test last week and scored 75%.,You need at least 80% on the final exam to pass the driving test.,practice,check_3d,,d,2003,C,check,NULL
1740436920,de3374b2792d01d18506c85eb3330d0e,PennController,28,0,check,NULL,PennController,28,_Header_,Start,1740436611761,6,1429,3,... he passed the test.,... he failed the test.,Well%2C if he scored 75%%2C ...,Oh%2C my cousin took the test last week and scored 75%.,You need at least 80% on the final exam to pass the driving test.,practice,check_3d,,d,2003,C,check,NULL
1740436920,de3374b2792d01d18506c85eb3330d0e,PennController,28,0,check,NULL,PennController,28,_Header_,End,1740436611761,6,1429,3,... he passed the test.,... he failed the test.,Well%2C if he scored 75%%2C ...,Oh%2C my cousin took the test last week and scored 75%.,You need at least 80% on the final exam to pass the driving test.,practice,check_3d,,d,2003,C,check,NULL
1740436920,de3374b2792d01d18506c85eb3330d0e,PennController,28,0,check,NULL,Selector,comparison,Selection,a1,1740436620045,6,1429,3,... he passed the test.,... he failed the test.,Well%2C if he scored 75%%2C ...,Oh%2C my cousin took the test last week and scored 75%.,You need at least 80% on the final exam to pass the driving test.,practice,check_3d,,d,2003,C,check,a2;a1
1740436920,de3374b2792d01d18506c85eb3330d0e,PennController,28,0,check,NULL,PennController,28,_Trial_,End,1740436620047,6,1429,3,... he passed the test.,... he failed the test.,Well%2C if he scored 75%%2C ...,Oh%2C my cousin took the test last week and scored 75%.,You need at least 80% on the final exam to pass the driving test.,practice,check_3d,,d,2003,C,check,NULL
1740436920,de3374b2792d01d18506c85eb3330d0e,PennController,17,0,trial,NULL,PennController,17,_Trial_,Start,1740436620049,7,12846,3,... she must have been required to shower.,... she has to have been required to shower.,Well%2C if a patient threw up on her%2C ...,I heard a patient threw up on her during her shift.,Laura took her break earlier than usual this afternoon.,practice,aHaveto_4,haveto,a,4,C,exp,NULL
1740436920,de3374b2792d01d18506c85eb3330d0e,PennController,17,0,trial,NULL,PennController,17,_Header_,Start,1740436620049,7,12846,3,... she must have been required to shower.,... she has to have been required to shower.,Well%2C if a patient threw up on her%2C ...,I heard a patient threw up on her during her shift.,Laura took her break earlier than usual this afternoon.,practice,aHaveto_4,haveto,a,4,C,exp,NULL
1740436920,de3374b2792d01d18506c85eb3330d0e,PennController,17,0,trial,NULL,PennController,17,_Header_,End,1740436620049,7,12846,3,... she must have been required to shower.,... she has to have been required to shower.,Well%2C if a patient threw up on her%2C ...,I heard a patient threw up on her during her shift.,Laura took her break earlier than usual this afternoon.,practice,aHaveto_4,haveto,a,4,C,exp,NULL
1740436920,de3374b2792d01d18506c85eb3330d0e,PennController,17,0,trial,NULL,Selector,comparison,Selection,a2,1740436640107,7,12846,3,... she must have been required to shower.,... she has to have been required to shower.,Well%2C if a patient threw up on her%2C ...,I heard a patient threw up on her during her shift.,Laura took her break earlier than usual this afternoon.,practice,aHaveto_4,haveto,a,4,C,exp,a1;a2
1740436920,de3374b2792d01d18506c85eb3330d0e,PennController,17,0,trial,NULL,PennController,17,_Trial_,End,1740436640107,7,12846,3,... she must have been required to shower.,... she has to have been required to shower.,Well%2C if a patient threw up on her%2C ...,I heard a patient threw up on her during her shift.,Laura took her break earlier than usual this afternoon.,practice,aHaveto_4,haveto,a,4,C,exp,NULL
1740436920,de3374b2792d01d18506c85eb3330d0e,PennController,20,0,filler,NULL,PennController,20,_Trial_,Start,1740436640108,8,1926,1,... he was probably suspended.,... he was suspended.,Well%2C if he got caught without his helmet%2C ...,Oh%2C my husband works at another engineering firm%2C and he got caught without his helmet last week.,At my engineering firm%2C employees caught without safety helmets are suspended.,practice,filler_i,,i,1027,C,filler,NULL
1740436920,de3374b2792d01d18506c85eb3330d0e,PennController,20,0,filler,NULL,PennController,20,_Header_,Start,1740436640108,8,1926,1,... he was probably suspended.,... he was suspended.,Well%2C if he got caught without his helmet%2C ...,Oh%2C my husband works at another engineering firm%2C and he got caught without his helmet last week.,At my engineering firm%2C employees caught without safety helmets are suspended.,practice,filler_i,,i,1027,C,filler,NULL
1740436920,de3374b2792d01d18506c85eb3330d0e,PennController,20,0,filler,NULL,PennController,20,_Header_,End,1740436640108,8,1926,1,... he was probably suspended.,... he was suspended.,Well%2C if he got caught without his helmet%2C ...,Oh%2C my husband works at another engineering firm%2C and he got caught without his helmet last week.,At my engineering firm%2C employees caught without safety helmets are suspended.,practice,filler_i,,i,1027,C,filler,NULL
1740436920,de3374b2792d01d18506c85eb3330d0e,PennController,20,0,filler,NULL,Selector,comparison,Selection,a2,1740436653680,8,1926,1,... he was probably suspended.,... he was suspended.,Well%2C if he got caught without his helmet%2C ...,Oh%2C my husband works at another engineering firm%2C and he got caught without his helmet last week.,At my engineering firm%2C employees caught without safety helmets are suspended.,practice,filler_i,,i,1027,C,filler,a1;a2
1740436920,de3374b2792d01d18506c85eb3330d0e,PennController,20,0,filler,NULL,PennController,20,_Trial_,End,1740436653682,8,1926,1,... he was probably suspended.,... he was suspended.,Well%2C if he got caught without his helmet%2C ...,Oh%2C my husband works at another engineering firm%2C and he got caught without his helmet last week.,At my engineering firm%2C employees caught without safety helmets are suspended.,practice,filler_i,,i,1027,C,filler,NULL
1740436920,de3374b2792d01d18506c85eb3330d0e,PennController,26,0,check,NULL,PennController,26,_Trial_,Start,1740436653684,9,3270,3,... the metro was closed. ,... the metro was open. ,Well%2C if it was 2 a.m.%2C ...,Oh%2C I walked past a metro station last night at 2 a.m.,The metro closes at 3 a.m. every night.,practice,check_1d,,d,2001,C,check,NULL
1740436920,de3374b2792d01d18506c85eb3330d0e,PennController,26,0,check,NULL,PennController,26,_Header_,Start,1740436653684,9,3270,3,... the metro was closed. ,... the metro was open. ,Well%2C if it was 2 a.m.%2C ...,Oh%2C I walked past a metro station last night at 2 a.m.,The metro closes at 3 a.m. every night.,practice,check_1d,,d,2001,C,check,NULL
1740436920,de3374b2792d01d18506c85eb3330d0e,PennController,26,0,check,NULL,PennController,26,_Header_,End,1740436653684,9,3270,3,... the metro was closed. ,... the metro was open. ,Well%2C if it was 2 a.m.%2C ...,Oh%2C I walked past a metro station last night at 2 a.m.,The metro closes at 3 a.m. every night.,practice,check_1d,,d,2001,C,check,NULL
1740436920,de3374b2792d01d18506c85eb3330d0e,PennController,26,0,check,NULL,Selector,comparison,Selection,a1,1740436667308,9,3270,3,... the metro was closed. ,... the metro was open. ,Well%2C if it was 2 a.m.%2C ...,Oh%2C I walked past a metro station last night at 2 a.m.,The metro closes at 3 a.m. every night.,practice,check_1d,,d,2001,C,check,a1;a2
1740436920,de3374b2792d01d18506c85eb3330d0e,PennController,26,0,check,NULL,PennController,26,_Trial_,End,1740436667311,9,3270,3,... the metro was closed. ,... the metro was open. ,Well%2C if it was 2 a.m.%2C ...,Oh%2C I walked past a metro station last night at 2 a.m.,The metro closes at 3 a.m. every night.,practice,check_1d,,d,2001,C,check,NULL
1740436920,de3374b2792d01d18506c85eb3330d0e,PennController,13,0,break,NULL,PennController,7,_Trial_,Start,1740436667312,9,3270,3,... the metro was closed. ,... the metro was open. ,Well%2C if it was 2 a.m.%2C ...,Oh%2C I walked past a metro station last night at 2 a.m.,The metro closes at 3 a.m. every night.,practice,check_1d,,d,2001,C,check,NULL
1740436920,de3374b2792d01d18506c85eb3330d0e,PennController,13,0,break,NULL,PennController,7,_Header_,Start,1740436667312,9,3270,3,... the metro was closed. ,... the metro was open. ,Well%2C if it was 2 a.m.%2C ...,Oh%2C I walked past a metro station last night at 2 a.m.,The metro closes at 3 a.m. every night.,practice,check_1d,,d,2001,C,check,NULL
1740436920,de3374b2792d01d18506c85eb3330d0e,PennController,13,0,break,NULL,PennController,7,_Header_,End,1740436667312,9,3270,3,... the metro was closed. ,... the metro was open. ,Well%2C if it was 2 a.m.%2C ...,Oh%2C I walked past a metro station last night at 2 a.m.,The metro closes at 3 a.m. every night.,practice,check_1d,,d,2001,C,check,NULL
1740436920,de3374b2792d01d18506c85eb3330d0e,PennController,13,0,break,NULL,PennController,7,_Trial_,End,1740436671709,9,3270,3,... the metro was closed. ,... the metro was open. ,Well%2C if it was 2 a.m.%2C ...,Oh%2C I walked past a metro station last night at 2 a.m.,The metro closes at 3 a.m. every night.,practice,check_1d,,d,2001,C,check,NULL
1740436920,de3374b2792d01d18506c85eb3330d0e,PennController,19,0,trial,NULL,PennController,19,_Trial_,Start,1740436671710,10,2088,4,... she must have been reported to the Office of Student Conduct.,... she has to have been reported to the Office of Student Conduct.,Well%2C if she was caught vaping on campus%2C ...,Oh%2C my sister goes to that college too%2C and she got caught vaping on campus recently.,At Oakridge College%2C students caught vaping are sent to the Office of Student Conduct.,practice,dHaveto_6,haveto,d,6,C,exp,NULL
1740436920,de3374b2792d01d18506c85eb3330d0e,PennController,19,0,trial,NULL,PennController,19,_Header_,Start,1740436671710,10,2088,4,... she must have been reported to the Office of Student Conduct.,... she has to have been reported to the Office of Student Conduct.,Well%2C if she was caught vaping on campus%2C ...,Oh%2C my sister goes to that college too%2C and she got caught vaping on campus recently.,At Oakridge College%2C students caught vaping are sent to the Office of Student Conduct.,practice,dHaveto_6,haveto,d,6,C,exp,NULL
1740436920,de3374b2792d01d18506c85eb3330d0e,PennController,19,0,trial,NULL,PennController,19,_Header_,End,1740436671711,10,2088,4,... she must have been reported to the Office of Student Conduct.,... she has to have been reported to the Office of Student Conduct.,Well%2C if she was caught vaping on campus%2C ...,Oh%2C my sister goes to that college too%2C and she got caught vaping on campus recently.,At Oakridge College%2C students caught vaping are sent to the Office of Student Conduct.,practice,dHaveto_6,haveto,d,6,C,exp,NULL
1740436920,de3374b2792d01d18506c85eb3330d0e,PennController,19,0,trial,NULL,Selector,comparison,Selection,a2,1740436681970,10,2088,4,... she must have been reported to the Office of Student Conduct.,... she has to have been reported to the Office of Student Conduct.,Well%2C if she was caught vaping on campus%2C ...,Oh%2C my sister goes to that college too%2C and she got caught vaping on campus recently.,At Oakridge College%2C students caught vaping are sent to the Office of Student Conduct.,practice,dHaveto_6,haveto,d,6,C,exp,a1;a2
1740436920,de3374b2792d01d18506c85eb3330d0e,PennController,19,0,trial,NULL,PennController,19,_Trial_,End,1740436681972,10,2088,4,... she must have been reported to the Office of Student Conduct.,... she has to have been reported to the Office of Student Conduct.,Well%2C if she was caught vaping on campus%2C ...,Oh%2C my sister goes to that college too%2C and she got caught vaping on campus recently.,At Oakridge College%2C students caught vaping are sent to the Office of Student Conduct.,practice,dHaveto_6,haveto,d,6,C,exp,NULL
1740436920,de3374b2792d01d18506c85eb3330d0e,PennController,22,0,filler,NULL,PennController,22,_Trial_,Start,1740436681974,11,5729,3,... she probably completed all her gen ed requirements.,... she will have completed all her gen ed requirements.,Well%2C if she got accepted into a study abroad program%2C ...,Oh%2C my friend is an undergrad at another university%2C and she got into the study abroad program.,At my university%2C undergrads must complete 40 credits to join the study abroad program.,practice,filler_i,,i,1025,C,filler,NULL
1740436920,de3374b2792d01d18506c85eb3330d0e,PennController,22,0,filler,NULL,PennController,22,_Header_,Start,1740436681974,11,5729,3,... she probably completed all her gen ed requirements.,... she will have completed all her gen ed requirements.,Well%2C if she got accepted into a study abroad program%2C ...,Oh%2C my friend is an undergrad at another university%2C and she got into the study abroad program.,At my university%2C undergrads must complete 40 credits to join the study abroad program.,practice,filler_i,,i,1025,C,filler,NULL
1740436920,de3374b2792d01d18506c85eb3330d0e,PennController,22,0,filler,NULL,PennController,22,_Header_,End,1740436681974,11,5729,3,... she probably completed all her gen ed requirements.,... she will have completed all her gen ed requirements.,Well%2C if she got accepted into a study abroad program%2C ...,Oh%2C my friend is an undergrad at another university%2C and she got into the study abroad program.,At my university%2C undergrads must complete 40 credits to join the study abroad program.,practice,filler_i,,i,1025,C,filler,NULL
1740436920,de3374b2792d01d18506c85eb3330d0e,PennController,22,0,filler,NULL,Selector,comparison,Selection,a2,1740436697675,11,5729,3,... she probably completed all her gen ed requirements.,... she will have completed all her gen ed requirements.,Well%2C if she got accepted into a study abroad program%2C ...,Oh%2C my friend is an undergrad at another university%2C and she got into the study abroad program.,At my university%2C undergrads must complete 40 credits to join the study abroad program.,practice,filler_i,,i,1025,C,filler,a2;a1
1740436920,de3374b2792d01d18506c85eb3330d0e,PennController,22,0,filler,NULL,PennController,22,_Trial_,End,1740436697677,11,5729,3,... she probably completed all her gen ed requirements.,... she will have completed all her gen ed requirements.,Well%2C if she got accepted into a study abroad program%2C ...,Oh%2C my friend is an undergrad at another university%2C and she got into the study abroad program.,At my university%2C undergrads must complete 40 credits to join the study abroad program.,practice,filler_i,,i,1025,C,filler,NULL
1740436920,de3374b2792d01d18506c85eb3330d0e,PennController,16,0,trial,NULL,PennController,16,_Trial_,Start,1740436697679,12,3423,3,... she must have taken a first aid course.,... she has to have taken a first aid course.,Well%2C if your friend is working solo shifts%2C ...,Oh%2C my friend is a receptionist at that gym%2C and she just started working solo shifts.,At Apex Fitness%2C all receptionists take a first aid course.,practice,dHaveto_3,haveto,d,3,C,exp,NULL
1740436920,de3374b2792d01d18506c85eb3330d0e,PennController,16,0,trial,NULL,PennController,16,_Header_,Start,1740436697679,12,3423,3,... she must have taken a first aid course.,... she has to have taken a first aid course.,Well%2C if your friend is working solo shifts%2C ...,Oh%2C my friend is a receptionist at that gym%2C and she just started working solo shifts.,At Apex Fitness%2C all receptionists take a first aid course.,practice,dHaveto_3,haveto,d,3,C,exp,NULL
1740436920,de3374b2792d01d18506c85eb3330d0e,PennController,16,0,trial,NULL,PennController,16,_Header_,End,1740436697679,12,3423,3,... she must have taken a first aid course.,... she has to have taken a first aid course.,Well%2C if your friend is working solo shifts%2C ...,Oh%2C my friend is a receptionist at that gym%2C and she just started working solo shifts.,At Apex Fitness%2C all receptionists take a first aid course.,practice,dHaveto_3,haveto,d,3,C,exp,NULL
1740436920,de3374b2792d01d18506c85eb3330d0e,PennController,16,0,trial,NULL,Selector,comparison,Selection,a2,1740436708325,12,3423,3,... she must have taken a first aid course.,... she has to have taken a first aid course.,Well%2C if your friend is working solo shifts%2C ...,Oh%2C my friend is a receptionist at that gym%2C and she just started working solo shifts.,At Apex Fitness%2C all receptionists take a first aid course.,practice,dHaveto_3,haveto,d,3,C,exp,a1;a2
1740436920,de3374b2792d01d18506c85eb3330d0e,PennController,16,0,trial,NULL,PennController,16,_Trial_,End,1740436708326,12,3423,3,... she must have taken a first aid course.,... she has to have taken a first aid course.,Well%2C if your friend is working solo shifts%2C ...,Oh%2C my friend is a receptionist at that gym%2C and she just started working solo shifts.,At Apex Fitness%2C all receptionists take a first aid course.,practice,dHaveto_3,haveto,d,3,C,exp,NULL
1740436920,de3374b2792d01d18506c85eb3330d0e,PennController,25,0,filler,NULL,PennController,25,_Trial_,Start,1740436708328,13,10510,2,...the employees probably had a lot of extra work.  ,...the employees will have had a lot of extra work.  ,Well%2C if his lab is being audited%2C ...,I heard the lab he manages is being considered for Humane Research Facility Certification.,Bob’s employees had to work late in the lab yesterday.,practice,filler_a,,a,1022,C,filler,NULL
1740436920,de3374b2792d01d18506c85eb3330d0e,PennController,25,0,filler,NULL,PennController,25,_Header_,Start,1740436708328,13,10510,2,...the employees probably had a lot of extra work.  ,...the employees will have had a lot of extra work.  ,Well%2C if his lab is being audited%2C ...,I heard the lab he manages is being considered for Humane Research Facility Certification.,Bob’s employees had to work late in the lab yesterday.,practice,filler_a,,a,1022,C,filler,NULL
1740436920,de3374b2792d01d18506c85eb3330d0e,PennController,25,0,filler,NULL,PennController,25,_Header_,End,1740436708328,13,10510,2,...the employees probably had a lot of extra work.  ,...the employees will have had a lot of extra work.  ,Well%2C if his lab is being audited%2C ...,I heard the lab he manages is being considered for Humane Research Facility Certification.,Bob’s employees had to work late in the lab yesterday.,practice,filler_a,,a,1022,C,filler,NULL
1740436920,de3374b2792d01d18506c85eb3330d0e,PennController,25,0,filler,NULL,Selector,comparison,Selection,a2,1740436739971,13,10510,2,...the employees probably had a lot of extra work.  ,...the employees will have had a lot of extra work.  ,Well%2C if his lab is being audited%2C ...,I heard the lab he manages is being considered for Humane Research Facility Certification.,Bob’s employees had to work late in the lab yesterday.,practice,filler_a,,a,1022,C,filler,a2;a1
1740436920,de3374b2792d01d18506c85eb3330d0e,PennController,25,0,filler,NULL,PennController,25,_Trial_,End,1740436739973,13,10510,2,...the employees probably had a lot of extra work.  ,...the employees will have had a lot of extra work.  ,Well%2C if his lab is being audited%2C ...,I heard the lab he manages is being considered for Humane Research Facility Certification.,Bob’s employees had to work late in the lab yesterday.,practice,filler_a,,a,1022,C,filler,NULL
1740436920,de3374b2792d01d18506c85eb3330d0e,PennController,13,0,break,NULL,PennController,7,_Trial_,Start,1740436739975,13,10510,2,...the employees probably had a lot of extra work.  ,...the employees will have had a lot of extra work.  ,Well%2C if his lab is being audited%2C ...,I heard the lab he manages is being considered for Humane Research Facility Certification.,Bob’s employees had to work late in the lab yesterday.,practice,filler_a,,a,1022,C,filler,NULL
1740436920,de3374b2792d01d18506c85eb3330d0e,PennController,13,0,break,NULL,PennController,7,_Header_,Start,1740436739975,13,10510,2,...the employees probably had a lot of extra work.  ,...the employees will have had a lot of extra work.  ,Well%2C if his lab is being audited%2C ...,I heard the lab he manages is being considered for Humane Research Facility Certification.,Bob’s employees had to work late in the lab yesterday.,practice,filler_a,,a,1022,C,filler,NULL
1740436920,de3374b2792d01d18506c85eb3330d0e,PennController,13,0,break,NULL,PennController,7,_Header_,End,1740436739975,13,10510,2,...the employees probably had a lot of extra work.  ,...the employees will have had a lot of extra work.  ,Well%2C if his lab is being audited%2C ...,I heard the lab he manages is being considered for Humane Research Facility Certification.,Bob’s employees had to work late in the lab yesterday.,practice,filler_a,,a,1022,C,filler,NULL
1740436920,de3374b2792d01d18506c85eb3330d0e,PennController,13,0,break,NULL,PennController,7,_Trial_,End,1740436744003,13,10510,2,...the employees probably had a lot of extra work.  ,...the employees will have had a lot of extra work.  ,Well%2C if his lab is being audited%2C ...,I heard the lab he manages is being considered for Humane Research Facility Certification.,Bob’s employees had to work late in the lab yesterday.,practice,filler_a,,a,1022,C,filler,NULL
1740436920,de3374b2792d01d18506c85eb3330d0e,PennController,27,0,check,NULL,PennController,27,_Trial_,Start,1740436744005,14,60000,4,... she will be disqualified from the competition.,... she will qualify for the competition.,Well%2C if her robot jumped the highest%2C ...,Oh%2C my friend entered that competition%2C and her robot finished in 5 minutes.,Robots must complete the course in under 7 mins to qualify for the competition.,practice,check_2d,,d,2002,C,check,NULL
1740436920,de3374b2792d01d18506c85eb3330d0e,PennController,27,0,check,NULL,PennController,27,_Header_,Start,1740436744005,14,60000,4,... she will be disqualified from the competition.,... she will qualify for the competition.,Well%2C if her robot jumped the highest%2C ...,Oh%2C my friend entered that competition%2C and her robot finished in 5 minutes.,Robots must complete the course in under 7 mins to qualify for the competition.,practice,check_2d,,d,2002,C,check,NULL
1740436920,de3374b2792d01d18506c85eb3330d0e,PennController,27,0,check,NULL,PennController,27,_Header_,End,1740436744006,14,60000,4,... she will be disqualified from the competition.,... she will qualify for the competition.,Well%2C if her robot jumped the highest%2C ...,Oh%2C my friend entered that competition%2C and her robot finished in 5 minutes.,Robots must complete the course in under 7 mins to qualify for the competition.,practice,check_2d,,d,2002,C,check,NULL
1740436920,de3374b2792d01d18506c85eb3330d0e,PennController,27,0,check,NULL,PennController,27,_Trial_,End,1740436812691,14,60000,4,... she will be disqualified from the competition.,... she will qualify for the competition.,Well%2C if her robot jumped the highest%2C ...,Oh%2C my friend entered that competition%2C and her robot finished in 5 minutes.,Robots must complete the course in under 7 mins to qualify for the competition.,practice,check_2d,,d,2002,C,check,NULL
1740436920,de3374b2792d01d18506c85eb3330d0e,PennController,18,0,trial,NULL,PennController,18,_Trial_,Start,1740436812694,15,7533,4,... she must have signed a non-disclosure agreement.,... she has to have signed a non-disclosure agreement.,Well%2C if she worked on set%2C ...,Oh%2C my wife works on set for a production company.,At Silverline Productions%2C all employees who work on set sign a non-disclosure agreement.,practice,iHaveto_5,haveto,i,5,C,exp,NULL
1740436920,de3374b2792d01d18506c85eb3330d0e,PennController,18,0,trial,NULL,PennController,18,_Header_,Start,1740436812694,15,7533,4,... she must have signed a non-disclosure agreement.,... she has to have signed a non-disclosure agreement.,Well%2C if she worked on set%2C ...,Oh%2C my wife works on set for a production company.,At Silverline Productions%2C all employees who work on set sign a non-disclosure agreement.,practice,iHaveto_5,haveto,i,5,C,exp,NULL
1740436920,de3374b2792d01d18506c85eb3330d0e,PennController,18,0,trial,NULL,PennController,18,_Header_,End,1740436812694,15,7533,4,... she must have signed a non-disclosure agreement.,... she has to have signed a non-disclosure agreement.,Well%2C if she worked on set%2C ...,Oh%2C my wife works on set for a production company.,At Silverline Productions%2C all employees who work on set sign a non-disclosure agreement.,practice,iHaveto_5,haveto,i,5,C,exp,NULL
1740436920,de3374b2792d01d18506c85eb3330d0e,PennController,18,0,trial,NULL,Selector,comparison,Selection,a1,1740436834975,15,7533,4,... she must have signed a non-disclosure agreement.,... she has to have signed a non-disclosure agreement.,Well%2C if she worked on set%2C ...,Oh%2C my wife works on set for a production company.,At Silverline Productions%2C all employees who work on set sign a non-disclosure agreement.,practice,iHaveto_5,haveto,i,5,C,exp,a2;a1
1740436920,de3374b2792d01d18506c85eb3330d0e,PennController,18,0,trial,NULL,PennController,18,_Trial_,End,1740436834977,15,7533,4,... she must have signed a non-disclosure agreement.,... she has to have signed a non-disclosure agreement.,Well%2C if she worked on set%2C ...,Oh%2C my wife works on set for a production company.,At Silverline Productions%2C all employees who work on set sign a non-disclosure agreement.,practice,iHaveto_5,haveto,i,5,C,exp,NULL
1740436920,de3374b2792d01d18506c85eb3330d0e,PennController,24,0,filler,NULL,PennController,24,_Trial_,Start,1740436834979,16,6865,3,... he will have been pulling overtime.,... he's been pulling overtime.,Well%2C if he's got a big project%2C ...,I heard he's working on a big project at work.,Luke’s been coming home really late this week.,practice,filler_a,,a,1023,C,filler,NULL
1740436920,de3374b2792d01d18506c85eb3330d0e,PennController,24,0,filler,NULL,PennController,24,_Header_,Start,1740436834979,16,6865,3,... he will have been pulling overtime.,... he's been pulling overtime.,Well%2C if he's got a big project%2C ...,I heard he's working on a big project at work.,Luke’s been coming home really late this week.,practice,filler_a,,a,1023,C,filler,NULL
1740436920,de3374b2792d01d18506c85eb3330d0e,PennController,24,0,filler,NULL,PennController,24,_Header_,End,1740436834979,16,6865,3,... he will have been pulling overtime.,... he's been pulling overtime.,Well%2C if he's got a big project%2C ...,I heard he's working on a big project at work.,Luke’s been coming home really late this week.,practice,filler_a,,a,1023,C,filler,NULL
1740436920,de3374b2792d01d18506c85eb3330d0e,PennController,24,0,filler,NULL,Selector,comparison,Selection,a1,1740436850559,16,6865,3,... he will have been pulling overtime.,... he's been pulling overtime.,Well%2C if he's got a big project%2C ...,I heard he's working on a big project at work.,Luke’s been coming home really late this week.,practice,filler_a,,a,1023,C,filler,a1;a2
1740436920,de3374b2792d01d18506c85eb3330d0e,PennController,24,0,filler,NULL,PennController,24,_Trial_,End,1740436850561,16,6865,3,... he will have been pulling overtime.,... he's been pulling overtime.,Well%2C if he's got a big project%2C ...,I heard he's working on a big project at work.,Luke’s been coming home really late this week.,practice,filler_a,,a,1023,C,filler,NULL
1740436920,de3374b2792d01d18506c85eb3330d0e,PennController,29,0,check,NULL,PennController,29,_Trial_,Start,1740436850563,17,1131,3,... the machine is on.,... the machine is off.,Well%2C if the power light is blue%2C ...,Oh%2C I just checked%2C and the power light is blue.,The machine is on whenever the power light is blue.,practice,check_4d,,d,2004,C,check,NULL
1740436920,de3374b2792d01d18506c85eb3330d0e,PennController,29,0,check,NULL,PennController,29,_Header_,Start,1740436850563,17,1131,3,... the machine is on.,... the machine is off.,Well%2C if the power light is blue%2C ...,Oh%2C I just checked%2C and the power light is blue.,The machine is on whenever the power light is blue.,practice,check_4d,,d,2004,C,check,NULL
1740436920,de3374b2792d01d18506c85eb3330d0e,PennController,29,0,check,NULL,PennController,29,_Header_,End,1740436850563,17,1131,3,... the machine is on.,... the machine is off.,Well%2C if the power light is blue%2C ...,Oh%2C I just checked%2C and the power light is blue.,The machine is on whenever the power light is blue.,practice,check_4d,,d,2004,C,check,NULL
1740436920,de3374b2792d01d18506c85eb3330d0e,PennController,29,0,check,NULL,Selector,comparison,Selection,a2,1740436858904,17,1131,3,... the machine is on.,... the machine is off.,Well%2C if the power light is blue%2C ...,Oh%2C I just checked%2C and the power light is blue.,The machine is on whenever the power light is blue.,practice,check_4d,,d,2004,C,check,a1;a2
1740436920,de3374b2792d01d18506c85eb3330d0e,PennController,29,0,check,NULL,PennController,29,_Trial_,End,1740436858906,17,1131,3,... the machine is on.,... the machine is off.,Well%2C if the power light is blue%2C ...,Oh%2C I just checked%2C and the power light is blue.,The machine is on whenever the power light is blue.,practice,check_4d,,d,2004,C,check,NULL
1740436920,de3374b2792d01d18506c85eb3330d0e,PennController,13,0,break,NULL,PennController,7,_Trial_,Start,1740436858907,17,1131,3,... the machine is on.,... the machine is off.,Well%2C if the power light is blue%2C ...,Oh%2C I just checked%2C and the power light is blue.,The machine is on whenever the power light is blue.,practice,check_4d,,d,2004,C,check,NULL
1740436920,de3374b2792d01d18506c85eb3330d0e,PennController,13,0,break,NULL,PennController,7,_Header_,Start,1740436858907,17,1131,3,... the machine is on.,... the machine is off.,Well%2C if the power light is blue%2C ...,Oh%2C I just checked%2C and the power light is blue.,The machine is on whenever the power light is blue.,practice,check_4d,,d,2004,C,check,NULL
1740436920,de3374b2792d01d18506c85eb3330d0e,PennController,13,0,break,NULL,PennController,7,_Header_,End,1740436858907,17,1131,3,... the machine is on.,... the machine is off.,Well%2C if the power light is blue%2C ...,Oh%2C I just checked%2C and the power light is blue.,The machine is on whenever the power light is blue.,practice,check_4d,,d,2004,C,check,NULL
1740436920,de3374b2792d01d18506c85eb3330d0e,PennController,13,0,break,NULL,PennController,7,_Trial_,End,1740436869048,17,1131,3,... the machine is on.,... the machine is off.,Well%2C if the power light is blue%2C ...,Oh%2C I just checked%2C and the power light is blue.,The machine is on whenever the power light is blue.,practice,check_4d,,d,2004,C,check,NULL
1740436920,de3374b2792d01d18506c85eb3330d0e,PennController,15,0,trial,NULL,PennController,15,_Trial_,Start,1740436869050,18,4753,3,... she must have completed ethics training.,... she has to have completed ethics training.,Well%2C if she's been there for over two years%2C ...,Oh%2C my wife is a financial advisor at a bank%2C and she’s been there for more than two years.,At Capital Bank%2C financial advisors do ethics training every two years.,practice,iHaveto_2,haveto,i,2,C,exp,NULL
1740436920,de3374b2792d01d18506c85eb3330d0e,PennController,15,0,trial,NULL,PennController,15,_Header_,Start,1740436869050,18,4753,3,... she must have completed ethics training.,... she has to have completed ethics training.,Well%2C if she's been there for over two years%2C ...,Oh%2C my wife is a financial advisor at a bank%2C and she’s been there for more than two years.,At Capital Bank%2C financial advisors do ethics training every two years.,practice,iHaveto_2,haveto,i,2,C,exp,NULL
1740436920,de3374b2792d01d18506c85eb3330d0e,PennController,15,0,trial,NULL,PennController,15,_Header_,End,1740436869050,18,4753,3,... she must have completed ethics training.,... she has to have completed ethics training.,Well%2C if she's been there for over two years%2C ...,Oh%2C my wife is a financial advisor at a bank%2C and she’s been there for more than two years.,At Capital Bank%2C financial advisors do ethics training every two years.,practice,iHaveto_2,haveto,i,2,C,exp,NULL
1740436920,de3374b2792d01d18506c85eb3330d0e,PennController,15,0,trial,NULL,Selector,comparison,Selection,a2,1740436881742,18,4753,3,... she must have completed ethics training.,... she has to have completed ethics training.,Well%2C if she's been there for over two years%2C ...,Oh%2C my wife is a financial advisor at a bank%2C and she’s been there for more than two years.,At Capital Bank%2C financial advisors do ethics training every two years.,practice,iHaveto_2,haveto,i,2,C,exp,a2;a1
1740436920,de3374b2792d01d18506c85eb3330d0e,PennController,15,0,trial,NULL,PennController,15,_Trial_,End,1740436881744,18,4753,3,... she must have completed ethics training.,... she has to have completed ethics training.,Well%2C if she's been there for over two years%2C ...,Oh%2C my wife is a financial advisor at a bank%2C and she’s been there for more than two years.,At Capital Bank%2C financial advisors do ethics training every two years.,practice,iHaveto_2,haveto,i,2,C,exp,NULL
1740436920,de3374b2792d01d18506c85eb3330d0e,PennController,21,0,filler,NULL,PennController,21,_Trial_,Start,1740436881746,19,11749,3,... he will have been put on academic probation.,... he was put on academic probation.,Well%2C if he missed that many practices%2C ...,Oh%2C my boyfriend is on another lacrosse team%2C and he missed 4 practices.,On my lacrosse team%2C athletes who miss 4 practices are put on academic probation.,practice,filler_i,,i,1026,C,filler,NULL
1740436920,de3374b2792d01d18506c85eb3330d0e,PennController,21,0,filler,NULL,PennController,21,_Header_,Start,1740436881746,19,11749,3,... he will have been put on academic probation.,... he was put on academic probation.,Well%2C if he missed that many practices%2C ...,Oh%2C my boyfriend is on another lacrosse team%2C and he missed 4 practices.,On my lacrosse team%2C athletes who miss 4 practices are put on academic probation.,practice,filler_i,,i,1026,C,filler,NULL
1740436920,de3374b2792d01d18506c85eb3330d0e,PennController,21,0,filler,NULL,PennController,21,_Header_,End,1740436881746,19,11749,3,... he will have been put on academic probation.,... he was put on academic probation.,Well%2C if he missed that many practices%2C ...,Oh%2C my boyfriend is on another lacrosse team%2C and he missed 4 practices.,On my lacrosse team%2C athletes who miss 4 practices are put on academic probation.,practice,filler_i,,i,1026,C,filler,NULL
1740436920,de3374b2792d01d18506c85eb3330d0e,PennController,21,0,filler,NULL,Selector,comparison,Selection,a2,1740436902092,19,11749,3,... he will have been put on academic probation.,... he was put on academic probation.,Well%2C if he missed that many practices%2C ...,Oh%2C my boyfriend is on another lacrosse team%2C and he missed 4 practices.,On my lacrosse team%2C athletes who miss 4 practices are put on academic probation.,practice,filler_i,,i,1026,C,filler,a2;a1
1740436920,de3374b2792d01d18506c85eb3330d0e,PennController,21,0,filler,NULL,PennController,21,_Trial_,End,1740436902094,19,11749,3,... he will have been put on academic probation.,... he was put on academic probation.,Well%2C if he missed that many practices%2C ...,Oh%2C my boyfriend is on another lacrosse team%2C and he missed 4 practices.,On my lacrosse team%2C athletes who miss 4 practices are put on academic probation.,practice,filler_i,,i,1026,C,filler,NULL
1740436920,de3374b2792d01d18506c85eb3330d0e,PennController,14,0,trial,NULL,PennController,14,_Trial_,Start,1740436902096,20,2157,5,... he must have had detention.,... he has to have had detention.,Well%2C if he wasn’t at practice%2C ...,Oh yeah? He missed practice after school today.,I heard John broke the school dress code again.,practice,aHaveto_1,haveto,a,1,C,exp,NULL
1740436920,de3374b2792d01d18506c85eb3330d0e,PennController,14,0,trial,NULL,PennController,14,_Header_,Start,1740436902096,20,2157,5,... he must have had detention.,... he has to have had detention.,Well%2C if he wasn’t at practice%2C ...,Oh yeah? He missed practice after school today.,I heard John broke the school dress code again.,practice,aHaveto_1,haveto,a,1,C,exp,NULL
1740436920,de3374b2792d01d18506c85eb3330d0e,PennController,14,0,trial,NULL,PennController,14,_Header_,End,1740436902096,20,2157,5,... he must have had detention.,... he has to have had detention.,Well%2C if he wasn’t at practice%2C ...,Oh yeah? He missed practice after school today.,I heard John broke the school dress code again.,practice,aHaveto_1,haveto,a,1,C,exp,NULL
1740436920,de3374b2792d01d18506c85eb3330d0e,PennController,14,0,trial,NULL,Selector,comparison,Selection,a2,1740436908709,20,2157,5,... he must have had detention.,... he has to have had detention.,Well%2C if he wasn’t at practice%2C ...,Oh yeah? He missed practice after school today.,I heard John broke the school dress code again.,practice,aHaveto_1,haveto,a,1,C,exp,a1;a2
1740436920,de3374b2792d01d18506c85eb3330d0e,PennController,14,0,trial,NULL,PennController,14,_Trial_,End,1740436908711,20,2157,5,... he must have had detention.,... he has to have had detention.,Well%2C if he wasn’t at practice%2C ...,Oh yeah? He missed practice after school today.,I heard John broke the school dress code again.,practice,aHaveto_1,haveto,a,1,C,exp,NULL
1740436920,de3374b2792d01d18506c85eb3330d0e,PennController,23,0,filler,NULL,PennController,23,_Trial_,Start,1740436908713,21,7498,5,... it probably triggered an automatic review.,... it triggered an automatic review.,Well%2C if he spent the entire engagement budget so quickly%2C ...,I heard he used up the entire employee engagement budget in 9 months.,After the audit last week%2C Chris was demoted.,practice,filler_a,,a,1024,C,filler,NULL
1740436920,de3374b2792d01d18506c85eb3330d0e,PennController,23,0,filler,NULL,PennController,23,_Header_,Start,1740436908713,21,7498,5,... it probably triggered an automatic review.,... it triggered an automatic review.,Well%2C if he spent the entire engagement budget so quickly%2C ...,I heard he used up the entire employee engagement budget in 9 months.,After the audit last week%2C Chris was demoted.,practice,filler_a,,a,1024,C,filler,NULL
1740436920,de3374b2792d01d18506c85eb3330d0e,PennController,23,0,filler,NULL,PennController,23,_Header_,End,1740436908713,21,7498,5,... it probably triggered an automatic review.,... it triggered an automatic review.,Well%2C if he spent the entire engagement budget so quickly%2C ...,I heard he used up the entire employee engagement budget in 9 months.,After the audit last week%2C Chris was demoted.,practice,filler_a,,a,1024,C,filler,NULL
1740436920,de3374b2792d01d18506c85eb3330d0e,PennController,23,0,filler,NULL,Selector,comparison,Selection,a2,1740436920684,21,7498,5,... it probably triggered an automatic review.,... it triggered an automatic review.,Well%2C if he spent the entire engagement budget so quickly%2C ...,I heard he used up the entire employee engagement budget in 9 months.,After the audit last week%2C Chris was demoted.,practice,filler_a,,a,1024,C,filler,a2;a1
1740436920,de3374b2792d01d18506c85eb3330d0e,PennController,23,0,filler,NULL,PennController,23,_Trial_,End,1740436920687,21,7498,5,... it probably triggered an automatic review.,... it triggered an automatic review.,Well%2C if he spent the entire engagement budget so quickly%2C ...,I heard he used up the entire employee engagement budget in 9 months.,After the audit last week%2C Chris was demoted.,practice,filler_a,,a,1024,C,filler,NULL
1740436920,de3374b2792d01d18506c85eb3330d0e,PennController,27,0,check,NULL,Selector,comparison,Selection,NA,Never,14,60000,4,... she will be disqualified from the competition.,... she will qualify for the competition.,Well%2C if her robot jumped the highest%2C ...,Oh%2C my friend entered that competition%2C and her robot finished in 5 minutes.,Robots must complete the course in under 7 mins to qualify for the competition.,practice,check_2d,,d,2002,C,check,a1;a2;No selection happened
#
# Results on Tue, 25 Feb 2025 17:16:12 GMT
# USER AGENT: Mozilla/5.0 (Macintosh; Intel Mac OS X 10_15_7) AppleWebKit/537.36 (KHTML, like Gecko) Chrome/133.0.0.0 Safari/537.36
# Design number was non-random = 18
#
# Columns below this comment are as follows:
# 1. Results reception time.
# 2. MD5 hash of participant's IP address.
# 3. Controller name.
# 4. Order number of item.
# 5. Inner element number.
# 6. Label.
# 7. Latin Square Group.
# 8. PennElementType.
# 9. PennElementName.
# 10. Parameter.
# 11. Value.
# 12. EventTime.
# 13. TrialNumber.
# 14. AnswerRT.
# 15. DialogueRT.
# 16. A2.
# 17. A1.
# 18. D3.
# 19. D2.
# 20. D1.
# 21. Condition.
# 22. ConditionName.
# 23. Answer.
# 24. Inference.
# 25. Item.
# 26. Group.
# 27. Type.
# 28. Comments.
1740503772,e0e56a27f8f50896047ae4080b1c13e6,PennController,1,0,intro,NULL,PennController,0,_Trial_,Start,1740503366987,undefined,undefined,undefined,undefined,undefined,undefined,undefined,undefined,undefined,undefined,undefined,undefined,undefined,undefined,undefined,NULL
1740503772,e0e56a27f8f50896047ae4080b1c13e6,PennController,1,0,intro,NULL,PennController,0,_Header_,Start,1740503366988,undefined,undefined,undefined,undefined,undefined,undefined,undefined,undefined,undefined,undefined,undefined,undefined,undefined,undefined,undefined,NULL
1740503772,e0e56a27f8f50896047ae4080b1c13e6,PennController,1,0,intro,NULL,PennController,0,_Header_,End,1740503366988,undefined,undefined,undefined,undefined,undefined,undefined,undefined,undefined,undefined,undefined,undefined,undefined,undefined,undefined,undefined,NULL
1740503772,e0e56a27f8f50896047ae4080b1c13e6,PennController,1,0,intro,NULL,PennController,0,_Trial_,End,1740503375597,undefined,undefined,undefined,undefined,undefined,undefined,undefined,undefined,undefined,undefined,undefined,undefined,undefined,undefined,undefined,NULL
1740503772,e0e56a27f8f50896047ae4080b1c13e6,PennController,2,0,consent,NULL,PennController,1,_Trial_,Start,1740503375599,undefined,undefined,undefined,undefined,undefined,undefined,undefined,undefined,undefined,undefined,undefined,undefined,undefined,undefined,undefined,NULL
1740503772,e0e56a27f8f50896047ae4080b1c13e6,PennController,2,0,consent,NULL,PennController,1,_Header_,Start,1740503375599,undefined,undefined,undefined,undefined,undefined,undefined,undefined,undefined,undefined,undefined,undefined,undefined,undefined,undefined,undefined,NULL
1740503772,e0e56a27f8f50896047ae4080b1c13e6,PennController,2,0,consent,NULL,PennController,1,_Header_,End,1740503375599,undefined,undefined,undefined,undefined,undefined,undefined,undefined,undefined,undefined,undefined,undefined,undefined,undefined,undefined,undefined,NULL
1740503772,e0e56a27f8f50896047ae4080b1c13e6,PennController,2,0,consent,NULL,PennController,1,_Trial_,End,1740503378884,undefined,undefined,undefined,undefined,undefined,undefined,undefined,undefined,undefined,undefined,undefined,undefined,undefined,undefined,undefined,NULL
1740503772,e0e56a27f8f50896047ae4080b1c13e6,PennController,3,0,demo,NULL,PennController,2,_Trial_,Start,1740503378885,undefined,undefined,undefined,undefined,undefined,undefined,undefined,undefined,undefined,undefined,undefined,undefined,undefined,undefined,undefined,NULL
1740503772,e0e56a27f8f50896047ae4080b1c13e6,PennController,3,0,demo,NULL,PennController,2,_Header_,Start,1740503378885,undefined,undefined,undefined,undefined,undefined,undefined,undefined,undefined,undefined,undefined,undefined,undefined,undefined,undefined,undefined,NULL
1740503772,e0e56a27f8f50896047ae4080b1c13e6,PennController,3,0,demo,NULL,PennController,2,_Header_,End,1740503378885,undefined,undefined,undefined,undefined,undefined,undefined,undefined,undefined,undefined,undefined,undefined,undefined,undefined,undefined,undefined,NULL
1740503772,e0e56a27f8f50896047ae4080b1c13e6,PennController,3,0,demo,NULL,TextInput,age,First,,1740503383632,undefined,undefined,undefined,undefined,undefined,undefined,undefined,undefined,undefined,undefined,undefined,undefined,undefined,undefined,undefined,6
1740503772,e0e56a27f8f50896047ae4080b1c13e6,PennController,3,0,demo,NULL,TextInput,gender,First,,1740503386566,undefined,undefined,undefined,undefined,undefined,undefined,undefined,undefined,undefined,undefined,undefined,undefined,undefined,undefined,undefined,Shift
1740503772,e0e56a27f8f50896047ae4080b1c13e6,PennController,3,0,demo,NULL,TextInput,geo,First,,1740503391403,undefined,undefined,undefined,undefined,undefined,undefined,undefined,undefined,undefined,undefined,undefined,undefined,undefined,undefined,undefined,Shift
1740503772,e0e56a27f8f50896047ae4080b1c13e6,PennController,3,0,demo,NULL,TextInput,comp,First,,1740503413358,undefined,undefined,undefined,undefined,undefined,undefined,undefined,undefined,undefined,undefined,undefined,undefined,undefined,undefined,undefined,Shift
1740503772,e0e56a27f8f50896047ae4080b1c13e6,PennController,3,0,demo,NULL,TextInput,language,First,,1740503418733,undefined,undefined,undefined,undefined,undefined,undefined,undefined,undefined,undefined,undefined,undefined,undefined,undefined,undefined,undefined,Shift
1740503772,e0e56a27f8f50896047ae4080b1c13e6,PennController,3,0,demo,NULL,TextInput,otherlg,First,,1740503421161,undefined,undefined,undefined,undefined,undefined,undefined,undefined,undefined,undefined,undefined,undefined,undefined,undefined,undefined,undefined,Shift
1740503772,e0e56a27f8f50896047ae4080b1c13e6,PennController,3,0,demo,NULL,TextInput,age,Final,666,1740503423671,undefined,undefined,undefined,undefined,undefined,undefined,undefined,undefined,undefined,undefined,undefined,undefined,undefined,undefined,undefined,NULL
1740503772,e0e56a27f8f50896047ae4080b1c13e6,PennController,3,0,demo,NULL,TextInput,gender,Final,All,1740503423671,undefined,undefined,undefined,undefined,undefined,undefined,undefined,undefined,undefined,undefined,undefined,undefined,undefined,undefined,undefined,NULL
1740503772,e0e56a27f8f50896047ae4080b1c13e6,PennController,3,0,demo,NULL,TextInput,geo,Final,Level 7%2C Tartarustan,1740503423671,undefined,undefined,undefined,undefined,undefined,undefined,undefined,undefined,undefined,undefined,undefined,undefined,undefined,undefined,undefined,NULL
1740503772,e0e56a27f8f50896047ae4080b1c13e6,PennController,3,0,demo,NULL,TextInput,comp,Final,Mac,1740503423671,undefined,undefined,undefined,undefined,undefined,undefined,undefined,undefined,undefined,undefined,undefined,undefined,undefined,undefined,undefined,NULL
1740503772,e0e56a27f8f50896047ae4080b1c13e6,PennController,3,0,demo,NULL,TextInput,language,Final,English,1740503423671,undefined,undefined,undefined,undefined,undefined,undefined,undefined,undefined,undefined,undefined,undefined,undefined,undefined,undefined,undefined,NULL
1740503772,e0e56a27f8f50896047ae4080b1c13e6,PennController,3,0,demo,NULL,TextInput,otherlg,Final,All,1740503423671,undefined,undefined,undefined,undefined,undefined,undefined,undefined,undefined,undefined,undefined,undefined,undefined,undefined,undefined,undefined,NULL
1740503772,e0e56a27f8f50896047ae4080b1c13e6,PennController,3,0,demo,NULL,PennController,2,_Trial_,End,1740503423672,undefined,undefined,undefined,undefined,undefined,undefined,undefined,undefined,undefined,undefined,undefined,undefined,undefined,undefined,undefined,NULL
1740503772,e0e56a27f8f50896047ae4080b1c13e6,PennController,4,0,inst-1,NULL,PennController,3,_Trial_,Start,1740503423673,undefined,undefined,undefined,undefined,undefined,undefined,undefined,undefined,undefined,undefined,undefined,undefined,undefined,undefined,undefined,NULL
1740503772,e0e56a27f8f50896047ae4080b1c13e6,PennController,4,0,inst-1,NULL,PennController,3,_Header_,Start,1740503423673,undefined,undefined,undefined,undefined,undefined,undefined,undefined,undefined,undefined,undefined,undefined,undefined,undefined,undefined,undefined,NULL
1740503772,e0e56a27f8f50896047ae4080b1c13e6,PennController,4,0,inst-1,NULL,PennController,3,_Header_,End,1740503423674,undefined,undefined,undefined,undefined,undefined,undefined,undefined,undefined,undefined,undefined,undefined,undefined,undefined,undefined,undefined,NULL
1740503772,e0e56a27f8f50896047ae4080b1c13e6,PennController,4,0,inst-1,NULL,PennController,3,_Trial_,End,1740503493304,undefined,undefined,undefined,undefined,undefined,undefined,undefined,undefined,undefined,undefined,undefined,undefined,undefined,undefined,undefined,NULL
1740503772,e0e56a27f8f50896047ae4080b1c13e6,PennController,5,0,inst-3,NULL,PennController,9,_Trial_,Start,1740503493306,1,2175,4,... the flights must have been delayed.,... the flights might have been delayed.,Well%2C if it was foggy%2C ...,My friend from Oliver just said it was foggy early today. ,Whenever it’s foggy%2C flights from Oliver Airport are delayed.,practice,obvious_example,practice,practice,1001,practice,practice,NULL
1740503772,e0e56a27f8f50896047ae4080b1c13e6,PennController,5,0,inst-3,NULL,PennController,9,_Header_,Start,1740503493306,1,2175,4,... the flights must have been delayed.,... the flights might have been delayed.,Well%2C if it was foggy%2C ...,My friend from Oliver just said it was foggy early today. ,Whenever it’s foggy%2C flights from Oliver Airport are delayed.,practice,obvious_example,practice,practice,1001,practice,practice,NULL
1740503772,e0e56a27f8f50896047ae4080b1c13e6,PennController,5,0,inst-3,NULL,PennController,9,_Header_,End,1740503493306,1,2175,4,... the flights must have been delayed.,... the flights might have been delayed.,Well%2C if it was foggy%2C ...,My friend from Oliver just said it was foggy early today. ,Whenever it’s foggy%2C flights from Oliver Airport are delayed.,practice,obvious_example,practice,practice,1001,practice,practice,NULL
1740503772,e0e56a27f8f50896047ae4080b1c13e6,PennController,5,0,inst-3,NULL,Selector,comparison,Selection,a2,1740503500019,1,2175,4,... the flights must have been delayed.,... the flights might have been delayed.,Well%2C if it was foggy%2C ...,My friend from Oliver just said it was foggy early today. ,Whenever it’s foggy%2C flights from Oliver Airport are delayed.,practice,obvious_example,practice,practice,1001,practice,practice,a2;a1
1740503772,e0e56a27f8f50896047ae4080b1c13e6,PennController,5,0,inst-3,NULL,PennController,9,_Trial_,End,1740503500022,1,2175,4,... the flights must have been delayed.,... the flights might have been delayed.,Well%2C if it was foggy%2C ...,My friend from Oliver just said it was foggy early today. ,Whenever it’s foggy%2C flights from Oliver Airport are delayed.,practice,obvious_example,practice,practice,1001,practice,practice,NULL
1740503772,e0e56a27f8f50896047ae4080b1c13e6,PennController,6,0,inst-4,NULL,PennController,4,_Trial_,Start,1740503500024,1,2175,4,... the flights must have been delayed.,... the flights might have been delayed.,Well%2C if it was foggy%2C ...,My friend from Oliver just said it was foggy early today. ,Whenever it’s foggy%2C flights from Oliver Airport are delayed.,practice,obvious_example,practice,practice,1001,practice,practice,NULL
1740503772,e0e56a27f8f50896047ae4080b1c13e6,PennController,6,0,inst-4,NULL,PennController,4,_Header_,Start,1740503500024,1,2175,4,... the flights must have been delayed.,... the flights might have been delayed.,Well%2C if it was foggy%2C ...,My friend from Oliver just said it was foggy early today. ,Whenever it’s foggy%2C flights from Oliver Airport are delayed.,practice,obvious_example,practice,practice,1001,practice,practice,NULL
1740503772,e0e56a27f8f50896047ae4080b1c13e6,PennController,6,0,inst-4,NULL,PennController,4,_Header_,End,1740503500024,1,2175,4,... the flights must have been delayed.,... the flights might have been delayed.,Well%2C if it was foggy%2C ...,My friend from Oliver just said it was foggy early today. ,Whenever it’s foggy%2C flights from Oliver Airport are delayed.,practice,obvious_example,practice,practice,1001,practice,practice,NULL
1740503772,e0e56a27f8f50896047ae4080b1c13e6,PennController,6,0,inst-4,NULL,PennController,4,_Trial_,End,1740503502721,1,2175,4,... the flights must have been delayed.,... the flights might have been delayed.,Well%2C if it was foggy%2C ...,My friend from Oliver just said it was foggy early today. ,Whenever it’s foggy%2C flights from Oliver Airport are delayed.,practice,obvious_example,practice,practice,1001,practice,practice,NULL
1740503772,e0e56a27f8f50896047ae4080b1c13e6,PennController,7,0,inst-5,NULL,PennController,10,_Trial_,Start,1740503502723,2,3788,3,... the trails must have been muddy.,... the trails might have been muddy.,Well%2C if it rained a lot%2C ...,It rained a lot on the Billy Goat trail last week.,When it rains a lot%2C the Billy Goat trail gets really muddy.,practice,negobvious_example,practice,practice,1002,practice,practice,NULL
1740503772,e0e56a27f8f50896047ae4080b1c13e6,PennController,7,0,inst-5,NULL,PennController,10,_Header_,Start,1740503502723,2,3788,3,... the trails must have been muddy.,... the trails might have been muddy.,Well%2C if it rained a lot%2C ...,It rained a lot on the Billy Goat trail last week.,When it rains a lot%2C the Billy Goat trail gets really muddy.,practice,negobvious_example,practice,practice,1002,practice,practice,NULL
1740503772,e0e56a27f8f50896047ae4080b1c13e6,PennController,7,0,inst-5,NULL,PennController,10,_Header_,End,1740503502723,2,3788,3,... the trails must have been muddy.,... the trails might have been muddy.,Well%2C if it rained a lot%2C ...,It rained a lot on the Billy Goat trail last week.,When it rains a lot%2C the Billy Goat trail gets really muddy.,practice,negobvious_example,practice,practice,1002,practice,practice,NULL
1740503772,e0e56a27f8f50896047ae4080b1c13e6,PennController,7,0,inst-5,NULL,Selector,comparison,Selection,a2,1740503513043,2,3788,3,... the trails must have been muddy.,... the trails might have been muddy.,Well%2C if it rained a lot%2C ...,It rained a lot on the Billy Goat trail last week.,When it rains a lot%2C the Billy Goat trail gets really muddy.,practice,negobvious_example,practice,practice,1002,practice,practice,a2;a1
1740503772,e0e56a27f8f50896047ae4080b1c13e6,PennController,7,0,inst-5,NULL,PennController,10,_Trial_,End,1740503513045,2,3788,3,... the trails must have been muddy.,... the trails might have been muddy.,Well%2C if it rained a lot%2C ...,It rained a lot on the Billy Goat trail last week.,When it rains a lot%2C the Billy Goat trail gets really muddy.,practice,negobvious_example,practice,practice,1002,practice,practice,NULL
1740503772,e0e56a27f8f50896047ae4080b1c13e6,PennController,8,0,inst-6,NULL,PennController,5,_Trial_,Start,1740503513047,2,3788,3,... the trails must have been muddy.,... the trails might have been muddy.,Well%2C if it rained a lot%2C ...,It rained a lot on the Billy Goat trail last week.,When it rains a lot%2C the Billy Goat trail gets really muddy.,practice,negobvious_example,practice,practice,1002,practice,practice,NULL
1740503772,e0e56a27f8f50896047ae4080b1c13e6,PennController,8,0,inst-6,NULL,PennController,5,_Header_,Start,1740503513047,2,3788,3,... the trails must have been muddy.,... the trails might have been muddy.,Well%2C if it rained a lot%2C ...,It rained a lot on the Billy Goat trail last week.,When it rains a lot%2C the Billy Goat trail gets really muddy.,practice,negobvious_example,practice,practice,1002,practice,practice,NULL
1740503772,e0e56a27f8f50896047ae4080b1c13e6,PennController,8,0,inst-6,NULL,PennController,5,_Header_,End,1740503513047,2,3788,3,... the trails must have been muddy.,... the trails might have been muddy.,Well%2C if it rained a lot%2C ...,It rained a lot on the Billy Goat trail last week.,When it rains a lot%2C the Billy Goat trail gets really muddy.,practice,negobvious_example,practice,practice,1002,practice,practice,NULL
1740503772,e0e56a27f8f50896047ae4080b1c13e6,PennController,8,0,inst-6,NULL,PennController,5,_Trial_,End,1740503514847,2,3788,3,... the trails must have been muddy.,... the trails might have been muddy.,Well%2C if it rained a lot%2C ...,It rained a lot on the Billy Goat trail last week.,When it rains a lot%2C the Billy Goat trail gets really muddy.,practice,negobvious_example,practice,practice,1002,practice,practice,NULL
1740503772,e0e56a27f8f50896047ae4080b1c13e6,PennController,9,0,prac-rest,NULL,PennController,11,_Trial_,Start,1740503514849,3,3135,5,... the lines must have been long.,... the lines might have been long.,If it's got good reviews%2C ...,That Marvel movie had a 90% score.,When a movie receives high ratings%2C the lines at my local cinema are long.,practice,practice_1,practice,practice,1003,practice,practice,NULL
1740503772,e0e56a27f8f50896047ae4080b1c13e6,PennController,9,0,prac-rest,NULL,PennController,11,_Header_,Start,1740503514849,3,3135,5,... the lines must have been long.,... the lines might have been long.,If it's got good reviews%2C ...,That Marvel movie had a 90% score.,When a movie receives high ratings%2C the lines at my local cinema are long.,practice,practice_1,practice,practice,1003,practice,practice,NULL
1740503772,e0e56a27f8f50896047ae4080b1c13e6,PennController,9,0,prac-rest,NULL,PennController,11,_Header_,End,1740503514849,3,3135,5,... the lines must have been long.,... the lines might have been long.,If it's got good reviews%2C ...,That Marvel movie had a 90% score.,When a movie receives high ratings%2C the lines at my local cinema are long.,practice,practice_1,practice,practice,1003,practice,practice,NULL
1740503772,e0e56a27f8f50896047ae4080b1c13e6,PennController,9,0,prac-rest,NULL,Selector,comparison,Selection,a2,1740503523201,3,3135,5,... the lines must have been long.,... the lines might have been long.,If it's got good reviews%2C ...,That Marvel movie had a 90% score.,When a movie receives high ratings%2C the lines at my local cinema are long.,practice,practice_1,practice,practice,1003,practice,practice,a1;a2
1740503772,e0e56a27f8f50896047ae4080b1c13e6,PennController,9,0,prac-rest,NULL,PennController,11,_Trial_,End,1740503523204,3,3135,5,... the lines must have been long.,... the lines might have been long.,If it's got good reviews%2C ...,That Marvel movie had a 90% score.,When a movie receives high ratings%2C the lines at my local cinema are long.,practice,practice_1,practice,practice,1003,practice,practice,NULL
1740503772,e0e56a27f8f50896047ae4080b1c13e6,PennController,11,0,prac-rest,NULL,PennController,13,_Trial_,Start,1740503523205,4,1061,3,... she must have had big news to share.,... she might have had big news to share.,Well%2C if she called%2C ...,I just missed a call from her.,She always calls home when she has exciting news to share.,practice,practice_3 ,practice,practice,1005,practice,practice,NULL
1740503772,e0e56a27f8f50896047ae4080b1c13e6,PennController,11,0,prac-rest,NULL,PennController,13,_Header_,Start,1740503523205,4,1061,3,... she must have had big news to share.,... she might have had big news to share.,Well%2C if she called%2C ...,I just missed a call from her.,She always calls home when she has exciting news to share.,practice,practice_3 ,practice,practice,1005,practice,practice,NULL
1740503772,e0e56a27f8f50896047ae4080b1c13e6,PennController,11,0,prac-rest,NULL,PennController,13,_Header_,End,1740503523205,4,1061,3,... she must have had big news to share.,... she might have had big news to share.,Well%2C if she called%2C ...,I just missed a call from her.,She always calls home when she has exciting news to share.,practice,practice_3 ,practice,practice,1005,practice,practice,NULL
1740503772,e0e56a27f8f50896047ae4080b1c13e6,PennController,11,0,prac-rest,NULL,Selector,comparison,Selection,a1,1740503543941,4,1061,3,... she must have had big news to share.,... she might have had big news to share.,Well%2C if she called%2C ...,I just missed a call from her.,She always calls home when she has exciting news to share.,practice,practice_3 ,practice,practice,1005,practice,practice,a1;a2
1740503772,e0e56a27f8f50896047ae4080b1c13e6,PennController,11,0,prac-rest,NULL,PennController,13,_Trial_,End,1740503543944,4,1061,3,... she must have had big news to share.,... she might have had big news to share.,Well%2C if she called%2C ...,I just missed a call from her.,She always calls home when she has exciting news to share.,practice,practice_3 ,practice,practice,1005,practice,practice,NULL
1740503772,e0e56a27f8f50896047ae4080b1c13e6,PennController,10,0,prac-rest,NULL,PennController,12,_Trial_,Start,1740503543946,5,2144,3,... they must have run out of pad Thai.,... they might have run out of pad Thai.,If it was that crowded%2C ...,That Thai place was packed on Friday night.,When a restaurant gets busy%2C they sometimes run out of popular dishes.,practice,practice_2,practice,practice,1004,practice,practice,NULL
1740503772,e0e56a27f8f50896047ae4080b1c13e6,PennController,10,0,prac-rest,NULL,PennController,12,_Header_,Start,1740503543946,5,2144,3,... they must have run out of pad Thai.,... they might have run out of pad Thai.,If it was that crowded%2C ...,That Thai place was packed on Friday night.,When a restaurant gets busy%2C they sometimes run out of popular dishes.,practice,practice_2,practice,practice,1004,practice,practice,NULL
1740503772,e0e56a27f8f50896047ae4080b1c13e6,PennController,10,0,prac-rest,NULL,PennController,12,_Header_,End,1740503543946,5,2144,3,... they must have run out of pad Thai.,... they might have run out of pad Thai.,If it was that crowded%2C ...,That Thai place was packed on Friday night.,When a restaurant gets busy%2C they sometimes run out of popular dishes.,practice,practice_2,practice,practice,1004,practice,practice,NULL
1740503772,e0e56a27f8f50896047ae4080b1c13e6,PennController,10,0,prac-rest,NULL,Selector,comparison,Selection,a1,1740503552478,5,2144,3,... they must have run out of pad Thai.,... they might have run out of pad Thai.,If it was that crowded%2C ...,That Thai place was packed on Friday night.,When a restaurant gets busy%2C they sometimes run out of popular dishes.,practice,practice_2,practice,practice,1004,practice,practice,a2;a1
1740503772,e0e56a27f8f50896047ae4080b1c13e6,PennController,10,0,prac-rest,NULL,PennController,12,_Trial_,End,1740503552480,5,2144,3,... they must have run out of pad Thai.,... they might have run out of pad Thai.,If it was that crowded%2C ...,That Thai place was packed on Friday night.,When a restaurant gets busy%2C they sometimes run out of popular dishes.,practice,practice_2,practice,practice,1004,practice,practice,NULL
1740503772,e0e56a27f8f50896047ae4080b1c13e6,PennController,12,0,exp-start,NULL,PennController,6,_Trial_,Start,1740503552481,5,2144,3,... they must have run out of pad Thai.,... they might have run out of pad Thai.,If it was that crowded%2C ...,That Thai place was packed on Friday night.,When a restaurant gets busy%2C they sometimes run out of popular dishes.,practice,practice_2,practice,practice,1004,practice,practice,NULL
1740503772,e0e56a27f8f50896047ae4080b1c13e6,PennController,12,0,exp-start,NULL,PennController,6,_Header_,Start,1740503552481,5,2144,3,... they must have run out of pad Thai.,... they might have run out of pad Thai.,If it was that crowded%2C ...,That Thai place was packed on Friday night.,When a restaurant gets busy%2C they sometimes run out of popular dishes.,practice,practice_2,practice,practice,1004,practice,practice,NULL
1740503772,e0e56a27f8f50896047ae4080b1c13e6,PennController,12,0,exp-start,NULL,PennController,6,_Header_,End,1740503552481,5,2144,3,... they must have run out of pad Thai.,... they might have run out of pad Thai.,If it was that crowded%2C ...,That Thai place was packed on Friday night.,When a restaurant gets busy%2C they sometimes run out of popular dishes.,practice,practice_2,practice,practice,1004,practice,practice,NULL
1740503772,e0e56a27f8f50896047ae4080b1c13e6,PennController,12,0,exp-start,NULL,PennController,6,_Trial_,End,1740503555086,5,2144,3,... they must have run out of pad Thai.,... they might have run out of pad Thai.,If it was that crowded%2C ...,That Thai place was packed on Friday night.,When a restaurant gets busy%2C they sometimes run out of popular dishes.,practice,practice_2,practice,practice,1004,practice,practice,NULL
1740503772,e0e56a27f8f50896047ae4080b1c13e6,PennController,26,0,check,NULL,PennController,26,_Trial_,Start,1740503555087,6,2330,3,... the metro was closed. ,... the metro was open. ,Well%2C if it was 2 a.m.%2C ...,Oh%2C I walked past a metro station last night at 2 a.m.,The metro closes at 3 a.m. every night.,practice,check_1d,,d,2001,A,check,NULL
1740503772,e0e56a27f8f50896047ae4080b1c13e6,PennController,26,0,check,NULL,PennController,26,_Header_,Start,1740503555087,6,2330,3,... the metro was closed. ,... the metro was open. ,Well%2C if it was 2 a.m.%2C ...,Oh%2C I walked past a metro station last night at 2 a.m.,The metro closes at 3 a.m. every night.,practice,check_1d,,d,2001,A,check,NULL
1740503772,e0e56a27f8f50896047ae4080b1c13e6,PennController,26,0,check,NULL,PennController,26,_Header_,End,1740503555087,6,2330,3,... the metro was closed. ,... the metro was open. ,Well%2C if it was 2 a.m.%2C ...,Oh%2C I walked past a metro station last night at 2 a.m.,The metro closes at 3 a.m. every night.,practice,check_1d,,d,2001,A,check,NULL
1740503772,e0e56a27f8f50896047ae4080b1c13e6,PennController,26,0,check,NULL,Selector,comparison,Selection,a1,1740503561600,6,2330,3,... the metro was closed. ,... the metro was open. ,Well%2C if it was 2 a.m.%2C ...,Oh%2C I walked past a metro station last night at 2 a.m.,The metro closes at 3 a.m. every night.,practice,check_1d,,d,2001,A,check,a1;a2
1740503772,e0e56a27f8f50896047ae4080b1c13e6,PennController,26,0,check,NULL,PennController,26,_Trial_,End,1740503561602,6,2330,3,... the metro was closed. ,... the metro was open. ,Well%2C if it was 2 a.m.%2C ...,Oh%2C I walked past a metro station last night at 2 a.m.,The metro closes at 3 a.m. every night.,practice,check_1d,,d,2001,A,check,NULL
1740503772,e0e56a27f8f50896047ae4080b1c13e6,PennController,22,0,filler,NULL,PennController,22,_Trial_,Start,1740503561604,7,23253,1,... she has to have completed all her gen ed requirements.,... she will have completed all her gen ed requirements.,Well%2C if she got accepted into a study abroad program%2C ...,Oh%2C my friend goes to college %2C and she got into a study abroad program.,At my college%2C the study abroad program requires completing all the gen-ed classes.,practice,filler_i,,i,1025,A,filler,NULL
1740503772,e0e56a27f8f50896047ae4080b1c13e6,PennController,22,0,filler,NULL,PennController,22,_Header_,Start,1740503561604,7,23253,1,... she has to have completed all her gen ed requirements.,... she will have completed all her gen ed requirements.,Well%2C if she got accepted into a study abroad program%2C ...,Oh%2C my friend goes to college %2C and she got into a study abroad program.,At my college%2C the study abroad program requires completing all the gen-ed classes.,practice,filler_i,,i,1025,A,filler,NULL
1740503772,e0e56a27f8f50896047ae4080b1c13e6,PennController,22,0,filler,NULL,PennController,22,_Header_,End,1740503561604,7,23253,1,... she has to have completed all her gen ed requirements.,... she will have completed all her gen ed requirements.,Well%2C if she got accepted into a study abroad program%2C ...,Oh%2C my friend goes to college %2C and she got into a study abroad program.,At my college%2C the study abroad program requires completing all the gen-ed classes.,practice,filler_i,,i,1025,A,filler,NULL
1740503772,e0e56a27f8f50896047ae4080b1c13e6,PennController,22,0,filler,NULL,Selector,comparison,Selection,a1,1740503595549,7,23253,1,... she has to have completed all her gen ed requirements.,... she will have completed all her gen ed requirements.,Well%2C if she got accepted into a study abroad program%2C ...,Oh%2C my friend goes to college %2C and she got into a study abroad program.,At my college%2C the study abroad program requires completing all the gen-ed classes.,practice,filler_i,,i,1025,A,filler,a1;a2
1740503772,e0e56a27f8f50896047ae4080b1c13e6,PennController,22,0,filler,NULL,PennController,22,_Trial_,End,1740503595550,7,23253,1,... she has to have completed all her gen ed requirements.,... she will have completed all her gen ed requirements.,Well%2C if she got accepted into a study abroad program%2C ...,Oh%2C my friend goes to college %2C and she got into a study abroad program.,At my college%2C the study abroad program requires completing all the gen-ed classes.,practice,filler_i,,i,1025,A,filler,NULL
1740503772,e0e56a27f8f50896047ae4080b1c13e6,PennController,17,0,trial,NULL,PennController,17,_Trial_,Start,1740503595551,8,4906,2,... she must have been required to shower.,... she was required to shower.,Well%2C if she was caught wearing perfume%2C ...,Oh%2C my sister is a nurse at a hospice and she was caught wearing perfume.,At my grandma's hospice%2C employees wearing perfume are required to shower. ,practice,iBare_4,Bare,i,4,A,exp,NULL
1740503772,e0e56a27f8f50896047ae4080b1c13e6,PennController,17,0,trial,NULL,PennController,17,_Header_,Start,1740503595551,8,4906,2,... she must have been required to shower.,... she was required to shower.,Well%2C if she was caught wearing perfume%2C ...,Oh%2C my sister is a nurse at a hospice and she was caught wearing perfume.,At my grandma's hospice%2C employees wearing perfume are required to shower. ,practice,iBare_4,Bare,i,4,A,exp,NULL
1740503772,e0e56a27f8f50896047ae4080b1c13e6,PennController,17,0,trial,NULL,PennController,17,_Header_,End,1740503595551,8,4906,2,... she must have been required to shower.,... she was required to shower.,Well%2C if she was caught wearing perfume%2C ...,Oh%2C my sister is a nurse at a hospice and she was caught wearing perfume.,At my grandma's hospice%2C employees wearing perfume are required to shower. ,practice,iBare_4,Bare,i,4,A,exp,NULL
1740503772,e0e56a27f8f50896047ae4080b1c13e6,PennController,17,0,trial,NULL,Selector,comparison,Selection,a1,1740503608162,8,4906,2,... she must have been required to shower.,... she was required to shower.,Well%2C if she was caught wearing perfume%2C ...,Oh%2C my sister is a nurse at a hospice and she was caught wearing perfume.,At my grandma's hospice%2C employees wearing perfume are required to shower. ,practice,iBare_4,Bare,i,4,A,exp,a1;a2
1740503772,e0e56a27f8f50896047ae4080b1c13e6,PennController,17,0,trial,NULL,PennController,17,_Trial_,End,1740503608163,8,4906,2,... she must have been required to shower.,... she was required to shower.,Well%2C if she was caught wearing perfume%2C ...,Oh%2C my sister is a nurse at a hospice and she was caught wearing perfume.,At my grandma's hospice%2C employees wearing perfume are required to shower. ,practice,iBare_4,Bare,i,4,A,exp,NULL
1740503772,e0e56a27f8f50896047ae4080b1c13e6,PennController,28,0,check,NULL,PennController,28,_Trial_,Start,1740503608165,9,1998,2,... he passed the test.,... he failed the test.,Well%2C if he scored 75%%2C ...,Oh%2C my cousin took the test last week and scored 75%.,You need at least 80% on the final exam to pass the driving test.,practice,check_3d,,d,2003,A,check,NULL
1740503772,e0e56a27f8f50896047ae4080b1c13e6,PennController,28,0,check,NULL,PennController,28,_Header_,Start,1740503608165,9,1998,2,... he passed the test.,... he failed the test.,Well%2C if he scored 75%%2C ...,Oh%2C my cousin took the test last week and scored 75%.,You need at least 80% on the final exam to pass the driving test.,practice,check_3d,,d,2003,A,check,NULL
1740503772,e0e56a27f8f50896047ae4080b1c13e6,PennController,28,0,check,NULL,PennController,28,_Header_,End,1740503608165,9,1998,2,... he passed the test.,... he failed the test.,Well%2C if he scored 75%%2C ...,Oh%2C my cousin took the test last week and scored 75%.,You need at least 80% on the final exam to pass the driving test.,practice,check_3d,,d,2003,A,check,NULL
1740503772,e0e56a27f8f50896047ae4080b1c13e6,PennController,28,0,check,NULL,Selector,comparison,Selection,a1,1740503614816,9,1998,2,... he passed the test.,... he failed the test.,Well%2C if he scored 75%%2C ...,Oh%2C my cousin took the test last week and scored 75%.,You need at least 80% on the final exam to pass the driving test.,practice,check_3d,,d,2003,A,check,a1;a2
1740503772,e0e56a27f8f50896047ae4080b1c13e6,PennController,28,0,check,NULL,PennController,28,_Trial_,End,1740503614818,9,1998,2,... he passed the test.,... he failed the test.,Well%2C if he scored 75%%2C ...,Oh%2C my cousin took the test last week and scored 75%.,You need at least 80% on the final exam to pass the driving test.,practice,check_3d,,d,2003,A,check,NULL
1740503772,e0e56a27f8f50896047ae4080b1c13e6,PennController,13,0,break,NULL,PennController,7,_Trial_,Start,1740503614819,9,1998,2,... he passed the test.,... he failed the test.,Well%2C if he scored 75%%2C ...,Oh%2C my cousin took the test last week and scored 75%.,You need at least 80% on the final exam to pass the driving test.,practice,check_3d,,d,2003,A,check,NULL
1740503772,e0e56a27f8f50896047ae4080b1c13e6,PennController,13,0,break,NULL,PennController,7,_Header_,Start,1740503614819,9,1998,2,... he passed the test.,... he failed the test.,Well%2C if he scored 75%%2C ...,Oh%2C my cousin took the test last week and scored 75%.,You need at least 80% on the final exam to pass the driving test.,practice,check_3d,,d,2003,A,check,NULL
1740503772,e0e56a27f8f50896047ae4080b1c13e6,PennController,13,0,break,NULL,PennController,7,_Header_,End,1740503614819,9,1998,2,... he passed the test.,... he failed the test.,Well%2C if he scored 75%%2C ...,Oh%2C my cousin took the test last week and scored 75%.,You need at least 80% on the final exam to pass the driving test.,practice,check_3d,,d,2003,A,check,NULL
1740503772,e0e56a27f8f50896047ae4080b1c13e6,PennController,13,0,break,NULL,PennController,7,_Trial_,End,1740503616147,9,1998,2,... he passed the test.,... he failed the test.,Well%2C if he scored 75%%2C ...,Oh%2C my cousin took the test last week and scored 75%.,You need at least 80% on the final exam to pass the driving test.,practice,check_3d,,d,2003,A,check,NULL
1740503772,e0e56a27f8f50896047ae4080b1c13e6,PennController,25,0,filler,NULL,PennController,25,_Trial_,Start,1740503616148,10,20478,3,....the employees have to have had a lot of extra work. ,...the employees will have had a lot of extra work.  ,Well%2C if his lab is being audited%2C ...,I heard his lab is undergoing an audit.,Bob’s employees had a big meeting yesterday,practice,filler_a,,a,1022,A,filler,NULL
1740503772,e0e56a27f8f50896047ae4080b1c13e6,PennController,25,0,filler,NULL,PennController,25,_Header_,Start,1740503616148,10,20478,3,....the employees have to have had a lot of extra work. ,...the employees will have had a lot of extra work.  ,Well%2C if his lab is being audited%2C ...,I heard his lab is undergoing an audit.,Bob’s employees had a big meeting yesterday,practice,filler_a,,a,1022,A,filler,NULL
1740503772,e0e56a27f8f50896047ae4080b1c13e6,PennController,25,0,filler,NULL,PennController,25,_Header_,End,1740503616149,10,20478,3,....the employees have to have had a lot of extra work. ,...the employees will have had a lot of extra work.  ,Well%2C if his lab is being audited%2C ...,I heard his lab is undergoing an audit.,Bob’s employees had a big meeting yesterday,practice,filler_a,,a,1022,A,filler,NULL
1740503772,e0e56a27f8f50896047ae4080b1c13e6,PennController,25,0,filler,NULL,Selector,comparison,Selection,a1,1740503643662,10,20478,3,....the employees have to have had a lot of extra work. ,...the employees will have had a lot of extra work.  ,Well%2C if his lab is being audited%2C ...,I heard his lab is undergoing an audit.,Bob’s employees had a big meeting yesterday,practice,filler_a,,a,1022,A,filler,a2;a1
1740503772,e0e56a27f8f50896047ae4080b1c13e6,PennController,25,0,filler,NULL,PennController,25,_Trial_,End,1740503643664,10,20478,3,....the employees have to have had a lot of extra work. ,...the employees will have had a lot of extra work.  ,Well%2C if his lab is being audited%2C ...,I heard his lab is undergoing an audit.,Bob’s employees had a big meeting yesterday,practice,filler_a,,a,1022,A,filler,NULL
