#
# Results on Sat, 04 Oct 2025 18:43:15 GMT
# USER AGENT: Mozilla/5.0 (Macintosh; Intel Mac OS X 10_15_7) AppleWebKit/537.36 (KHTML, like Gecko) Chrome/140.0.0.0 Safari/537.36
# Design number was non-random = 1
#
# Columns below this comment are as follows:
# 1. Results reception time.
# 2. MD5 hash of participant's IP address.
# 3. Controller name.
# 4. Order number of item.
# 5. Inner element number.
# 6. Label.
# 7. Latin Square Group.
# 8. PennElementType.
# 9. PennElementName.
# 10. Parameter.
# 11. Value.
# 12. EventTime.
# 13. TrialNumber.
# 14. AnswerRT.
# 15. DialogueRT.
# 16. A2.
# 17. A1.
# 18. D3.
# 19. D2.
# 20. D1.
# 21. Condition.
# 22. ConditionName.
# 23. Answer.
# 24. Inference.
# 25. Item.
# 26. Group.
# 27. Type.
# 28. Comments.
1759603395,b894630baefe080b7bf6456a7c932fd2,PennController,1,0,intro,NULL,PennController,0,_Trial_,Start,1759603109124,undefined,undefined,undefined,undefined,undefined,undefined,undefined,undefined,undefined,undefined,undefined,undefined,undefined,undefined,undefined,NULL
1759603395,b894630baefe080b7bf6456a7c932fd2,PennController,1,0,intro,NULL,PennController,0,_Header_,Start,1759603109124,undefined,undefined,undefined,undefined,undefined,undefined,undefined,undefined,undefined,undefined,undefined,undefined,undefined,undefined,undefined,NULL
1759603395,b894630baefe080b7bf6456a7c932fd2,PennController,1,0,intro,NULL,PennController,0,_Header_,End,1759603109124,undefined,undefined,undefined,undefined,undefined,undefined,undefined,undefined,undefined,undefined,undefined,undefined,undefined,undefined,undefined,NULL
1759603395,b894630baefe080b7bf6456a7c932fd2,PennController,1,0,intro,NULL,PennController,0,_Trial_,End,1759603117690,undefined,undefined,undefined,undefined,undefined,undefined,undefined,undefined,undefined,undefined,undefined,undefined,undefined,undefined,undefined,NULL
1759603395,b894630baefe080b7bf6456a7c932fd2,PennController,2,0,consent,NULL,PennController,1,_Trial_,Start,1759603117692,undefined,undefined,undefined,undefined,undefined,undefined,undefined,undefined,undefined,undefined,undefined,undefined,undefined,undefined,undefined,NULL
1759603395,b894630baefe080b7bf6456a7c932fd2,PennController,2,0,consent,NULL,PennController,1,_Header_,Start,1759603117692,undefined,undefined,undefined,undefined,undefined,undefined,undefined,undefined,undefined,undefined,undefined,undefined,undefined,undefined,undefined,NULL
1759603395,b894630baefe080b7bf6456a7c932fd2,PennController,2,0,consent,NULL,PennController,1,_Header_,End,1759603117693,undefined,undefined,undefined,undefined,undefined,undefined,undefined,undefined,undefined,undefined,undefined,undefined,undefined,undefined,undefined,NULL
1759603395,b894630baefe080b7bf6456a7c932fd2,PennController,2,0,consent,NULL,PennController,1,_Trial_,End,1759603120955,undefined,undefined,undefined,undefined,undefined,undefined,undefined,undefined,undefined,undefined,undefined,undefined,undefined,undefined,undefined,NULL
1759603395,b894630baefe080b7bf6456a7c932fd2,PennController,3,0,demo,NULL,PennController,2,_Trial_,Start,1759603120956,undefined,undefined,undefined,undefined,undefined,undefined,undefined,undefined,undefined,undefined,undefined,undefined,undefined,undefined,undefined,NULL
1759603395,b894630baefe080b7bf6456a7c932fd2,PennController,3,0,demo,NULL,PennController,2,_Header_,Start,1759603120956,undefined,undefined,undefined,undefined,undefined,undefined,undefined,undefined,undefined,undefined,undefined,undefined,undefined,undefined,undefined,NULL
1759603395,b894630baefe080b7bf6456a7c932fd2,PennController,3,0,demo,NULL,PennController,2,_Header_,End,1759603120957,undefined,undefined,undefined,undefined,undefined,undefined,undefined,undefined,undefined,undefined,undefined,undefined,undefined,undefined,undefined,NULL
1759603395,b894630baefe080b7bf6456a7c932fd2,PennController,3,0,demo,NULL,TextInput,age,First,,1759603123674,undefined,undefined,undefined,undefined,undefined,undefined,undefined,undefined,undefined,undefined,undefined,undefined,undefined,undefined,undefined,1
1759603395,b894630baefe080b7bf6456a7c932fd2,PennController,3,0,demo,NULL,TextInput,gender,First,,1759603125130,undefined,undefined,undefined,undefined,undefined,undefined,undefined,undefined,undefined,undefined,undefined,undefined,undefined,undefined,undefined,Shift
1759603395,b894630baefe080b7bf6456a7c932fd2,PennController,3,0,demo,NULL,TextInput,geo,First,,1759603128881,undefined,undefined,undefined,undefined,undefined,undefined,undefined,undefined,undefined,undefined,undefined,undefined,undefined,undefined,undefined,Shift
1759603395,b894630baefe080b7bf6456a7c932fd2,PennController,3,0,demo,NULL,TextInput,comp,First,,1759603141605,undefined,undefined,undefined,undefined,undefined,undefined,undefined,undefined,undefined,undefined,undefined,undefined,undefined,undefined,undefined,Shift
1759603395,b894630baefe080b7bf6456a7c932fd2,PennController,3,0,demo,NULL,TextInput,language,First,,1759603143017,undefined,undefined,undefined,undefined,undefined,undefined,undefined,undefined,undefined,undefined,undefined,undefined,undefined,undefined,undefined,Shift
1759603395,b894630baefe080b7bf6456a7c932fd2,PennController,3,0,demo,NULL,TextInput,otherlg,First,,1759603144891,undefined,undefined,undefined,undefined,undefined,undefined,undefined,undefined,undefined,undefined,undefined,undefined,undefined,undefined,undefined,Shift
1759603395,b894630baefe080b7bf6456a7c932fd2,PennController,3,0,demo,NULL,TextInput,age,Final,18,1759603155153,undefined,undefined,undefined,undefined,undefined,undefined,undefined,undefined,undefined,undefined,undefined,undefined,undefined,undefined,undefined,NULL
1759603395,b894630baefe080b7bf6456a7c932fd2,PennController,3,0,demo,NULL,TextInput,gender,Final,Male,1759603155156,undefined,undefined,undefined,undefined,undefined,undefined,undefined,undefined,undefined,undefined,undefined,undefined,undefined,undefined,undefined,NULL
1759603395,b894630baefe080b7bf6456a7c932fd2,PennController,3,0,demo,NULL,TextInput,geo,Final,Maryland%2C United States of America,1759603155156,undefined,undefined,undefined,undefined,undefined,undefined,undefined,undefined,undefined,undefined,undefined,undefined,undefined,undefined,undefined,NULL
1759603395,b894630baefe080b7bf6456a7c932fd2,PennController,3,0,demo,NULL,TextInput,comp,Final,Mac,1759603155157,undefined,undefined,undefined,undefined,undefined,undefined,undefined,undefined,undefined,undefined,undefined,undefined,undefined,undefined,undefined,NULL
1759603395,b894630baefe080b7bf6456a7c932fd2,PennController,3,0,demo,NULL,TextInput,language,Final,English,1759603155157,undefined,undefined,undefined,undefined,undefined,undefined,undefined,undefined,undefined,undefined,undefined,undefined,undefined,undefined,undefined,NULL
1759603395,b894630baefe080b7bf6456a7c932fd2,PennController,3,0,demo,NULL,TextInput,otherlg,Final,Spanish (proficient)%2C Darija (novice),1759603155157,undefined,undefined,undefined,undefined,undefined,undefined,undefined,undefined,undefined,undefined,undefined,undefined,undefined,undefined,undefined,NULL
1759603395,b894630baefe080b7bf6456a7c932fd2,PennController,3,0,demo,NULL,PennController,2,_Trial_,End,1759603155158,undefined,undefined,undefined,undefined,undefined,undefined,undefined,undefined,undefined,undefined,undefined,undefined,undefined,undefined,undefined,NULL
1759603395,b894630baefe080b7bf6456a7c932fd2,PennController,4,0,inst-1,NULL,PennController,3,_Trial_,Start,1759603155161,undefined,undefined,undefined,undefined,undefined,undefined,undefined,undefined,undefined,undefined,undefined,undefined,undefined,undefined,undefined,NULL
1759603395,b894630baefe080b7bf6456a7c932fd2,PennController,4,0,inst-1,NULL,PennController,3,_Header_,Start,1759603155161,undefined,undefined,undefined,undefined,undefined,undefined,undefined,undefined,undefined,undefined,undefined,undefined,undefined,undefined,undefined,NULL
1759603395,b894630baefe080b7bf6456a7c932fd2,PennController,4,0,inst-1,NULL,PennController,3,_Header_,End,1759603155161,undefined,undefined,undefined,undefined,undefined,undefined,undefined,undefined,undefined,undefined,undefined,undefined,undefined,undefined,undefined,NULL
1759603395,b894630baefe080b7bf6456a7c932fd2,PennController,4,0,inst-1,NULL,PennController,3,_Trial_,End,1759603174757,undefined,undefined,undefined,undefined,undefined,undefined,undefined,undefined,undefined,undefined,undefined,undefined,undefined,undefined,undefined,NULL
1759603395,b894630baefe080b7bf6456a7c932fd2,PennController,5,0,inst-3,NULL,PennController,8,_Trial_,Start,1759603174759,1,5389,12,...the pastries <span class='highlight'>are probably sold out</span> by now.,...the pastries <span class='highlight'>should be sold out</span> by now.,Well%2C if they had a sale this morning%2C and it's already noon%2C ...,My friend said they posted about a big sale this morning.,When the local bakery runs a sale%2C they sell out of pastries quickly.,practice,obvious_example,practice,practice,1002,practice,practice,NULL
1759603395,b894630baefe080b7bf6456a7c932fd2,PennController,5,0,inst-3,NULL,PennController,8,_Header_,Start,1759603174759,1,5389,12,...the pastries <span class='highlight'>are probably sold out</span> by now.,...the pastries <span class='highlight'>should be sold out</span> by now.,Well%2C if they had a sale this morning%2C and it's already noon%2C ...,My friend said they posted about a big sale this morning.,When the local bakery runs a sale%2C they sell out of pastries quickly.,practice,obvious_example,practice,practice,1002,practice,practice,NULL
1759603395,b894630baefe080b7bf6456a7c932fd2,PennController,5,0,inst-3,NULL,PennController,8,_Header_,End,1759603174760,1,5389,12,...the pastries <span class='highlight'>are probably sold out</span> by now.,...the pastries <span class='highlight'>should be sold out</span> by now.,Well%2C if they had a sale this morning%2C and it's already noon%2C ...,My friend said they posted about a big sale this morning.,When the local bakery runs a sale%2C they sell out of pastries quickly.,practice,obvious_example,practice,practice,1002,practice,practice,NULL
1759603395,b894630baefe080b7bf6456a7c932fd2,PennController,5,0,inst-3,NULL,Selector,comparison,Selection,a2,1759603190618,1,5389,12,...the pastries <span class='highlight'>are probably sold out</span> by now.,...the pastries <span class='highlight'>should be sold out</span> by now.,Well%2C if they had a sale this morning%2C and it's already noon%2C ...,My friend said they posted about a big sale this morning.,When the local bakery runs a sale%2C they sell out of pastries quickly.,practice,obvious_example,practice,practice,1002,practice,practice,a1;a2
1759603395,b894630baefe080b7bf6456a7c932fd2,PennController,5,0,inst-3,NULL,PennController,8,_Trial_,End,1759603190623,1,5389,12,...the pastries <span class='highlight'>are probably sold out</span> by now.,...the pastries <span class='highlight'>should be sold out</span> by now.,Well%2C if they had a sale this morning%2C and it's already noon%2C ...,My friend said they posted about a big sale this morning.,When the local bakery runs a sale%2C they sell out of pastries quickly.,practice,obvious_example,practice,practice,1002,practice,practice,NULL
1759603395,b894630baefe080b7bf6456a7c932fd2,PennController,6,0,inst-4,NULL,PennController,4,_Trial_,Start,1759603190626,1,5389,12,...the pastries <span class='highlight'>are probably sold out</span> by now.,...the pastries <span class='highlight'>should be sold out</span> by now.,Well%2C if they had a sale this morning%2C and it's already noon%2C ...,My friend said they posted about a big sale this morning.,When the local bakery runs a sale%2C they sell out of pastries quickly.,practice,obvious_example,practice,practice,1002,practice,practice,NULL
1759603395,b894630baefe080b7bf6456a7c932fd2,PennController,6,0,inst-4,NULL,PennController,4,_Header_,Start,1759603190626,1,5389,12,...the pastries <span class='highlight'>are probably sold out</span> by now.,...the pastries <span class='highlight'>should be sold out</span> by now.,Well%2C if they had a sale this morning%2C and it's already noon%2C ...,My friend said they posted about a big sale this morning.,When the local bakery runs a sale%2C they sell out of pastries quickly.,practice,obvious_example,practice,practice,1002,practice,practice,NULL
1759603395,b894630baefe080b7bf6456a7c932fd2,PennController,6,0,inst-4,NULL,PennController,4,_Header_,End,1759603190626,1,5389,12,...the pastries <span class='highlight'>are probably sold out</span> by now.,...the pastries <span class='highlight'>should be sold out</span> by now.,Well%2C if they had a sale this morning%2C and it's already noon%2C ...,My friend said they posted about a big sale this morning.,When the local bakery runs a sale%2C they sell out of pastries quickly.,practice,obvious_example,practice,practice,1002,practice,practice,NULL
1759603395,b894630baefe080b7bf6456a7c932fd2,PennController,6,0,inst-4,NULL,PennController,4,_Trial_,End,1759603193956,1,5389,12,...the pastries <span class='highlight'>are probably sold out</span> by now.,...the pastries <span class='highlight'>should be sold out</span> by now.,Well%2C if they had a sale this morning%2C and it's already noon%2C ...,My friend said they posted about a big sale this morning.,When the local bakery runs a sale%2C they sell out of pastries quickly.,practice,obvious_example,practice,practice,1002,practice,practice,NULL
1759603395,b894630baefe080b7bf6456a7c932fd2,PennController,7,0,inst-5,NULL,PennController,9,_Trial_,Start,1759603193958,2,2107,6,...the parking lot <span class='highlight'>is probably filled up</span> by now.,...the parking lot <span class='highlight'>should be filled up</span> by now.,Well%2C if it was sunny this morning%2C and it's already 2pm%2C ...,My friend said it was beautiful weather this morning.,When it's sunny and warm%2C the beach parking lot fills up fast.,practice,negobvious_example,practice,practice,1001,practice,practice,NULL
1759603395,b894630baefe080b7bf6456a7c932fd2,PennController,7,0,inst-5,NULL,PennController,9,_Header_,Start,1759603193958,2,2107,6,...the parking lot <span class='highlight'>is probably filled up</span> by now.,...the parking lot <span class='highlight'>should be filled up</span> by now.,Well%2C if it was sunny this morning%2C and it's already 2pm%2C ...,My friend said it was beautiful weather this morning.,When it's sunny and warm%2C the beach parking lot fills up fast.,practice,negobvious_example,practice,practice,1001,practice,practice,NULL
1759603395,b894630baefe080b7bf6456a7c932fd2,PennController,7,0,inst-5,NULL,PennController,9,_Header_,End,1759603193958,2,2107,6,...the parking lot <span class='highlight'>is probably filled up</span> by now.,...the parking lot <span class='highlight'>should be filled up</span> by now.,Well%2C if it was sunny this morning%2C and it's already 2pm%2C ...,My friend said it was beautiful weather this morning.,When it's sunny and warm%2C the beach parking lot fills up fast.,practice,negobvious_example,practice,practice,1001,practice,practice,NULL
1759603395,b894630baefe080b7bf6456a7c932fd2,PennController,7,0,inst-5,NULL,Selector,comparison,Selection,a2,1759603202066,2,2107,6,...the parking lot <span class='highlight'>is probably filled up</span> by now.,...the parking lot <span class='highlight'>should be filled up</span> by now.,Well%2C if it was sunny this morning%2C and it's already 2pm%2C ...,My friend said it was beautiful weather this morning.,When it's sunny and warm%2C the beach parking lot fills up fast.,practice,negobvious_example,practice,practice,1001,practice,practice,a2;a1
1759603395,b894630baefe080b7bf6456a7c932fd2,PennController,7,0,inst-5,NULL,PennController,9,_Trial_,End,1759603202071,2,2107,6,...the parking lot <span class='highlight'>is probably filled up</span> by now.,...the parking lot <span class='highlight'>should be filled up</span> by now.,Well%2C if it was sunny this morning%2C and it's already 2pm%2C ...,My friend said it was beautiful weather this morning.,When it's sunny and warm%2C the beach parking lot fills up fast.,practice,negobvious_example,practice,practice,1001,practice,practice,NULL
1759603395,b894630baefe080b7bf6456a7c932fd2,PennController,8,0,exp-start,NULL,PennController,5,_Trial_,Start,1759603202073,2,2107,6,...the parking lot <span class='highlight'>is probably filled up</span> by now.,...the parking lot <span class='highlight'>should be filled up</span> by now.,Well%2C if it was sunny this morning%2C and it's already 2pm%2C ...,My friend said it was beautiful weather this morning.,When it's sunny and warm%2C the beach parking lot fills up fast.,practice,negobvious_example,practice,practice,1001,practice,practice,NULL
1759603395,b894630baefe080b7bf6456a7c932fd2,PennController,8,0,exp-start,NULL,PennController,5,_Header_,Start,1759603202073,2,2107,6,...the parking lot <span class='highlight'>is probably filled up</span> by now.,...the parking lot <span class='highlight'>should be filled up</span> by now.,Well%2C if it was sunny this morning%2C and it's already 2pm%2C ...,My friend said it was beautiful weather this morning.,When it's sunny and warm%2C the beach parking lot fills up fast.,practice,negobvious_example,practice,practice,1001,practice,practice,NULL
1759603395,b894630baefe080b7bf6456a7c932fd2,PennController,8,0,exp-start,NULL,PennController,5,_Header_,End,1759603202075,2,2107,6,...the parking lot <span class='highlight'>is probably filled up</span> by now.,...the parking lot <span class='highlight'>should be filled up</span> by now.,Well%2C if it was sunny this morning%2C and it's already 2pm%2C ...,My friend said it was beautiful weather this morning.,When it's sunny and warm%2C the beach parking lot fills up fast.,practice,negobvious_example,practice,practice,1001,practice,practice,NULL
1759603395,b894630baefe080b7bf6456a7c932fd2,PennController,8,0,exp-start,NULL,PennController,5,_Trial_,End,1759603204605,2,2107,6,...the parking lot <span class='highlight'>is probably filled up</span> by now.,...the parking lot <span class='highlight'>should be filled up</span> by now.,Well%2C if it was sunny this morning%2C and it's already 2pm%2C ...,My friend said it was beautiful weather this morning.,When it's sunny and warm%2C the beach parking lot fills up fast.,practice,negobvious_example,practice,practice,1001,practice,practice,NULL
1759603395,b894630baefe080b7bf6456a7c932fd2,PennController,23,0,check,NULL,PennController,23,_Trial_,Start,1759603204608,3,3439,8,... she <span class='highlight'>lost</span> the competition .,... she <span class='highlight'>won</span> the competition.,Well%2C if her robot jumped the highest%2C ...,Oh%2C my friend entered that competition%2C and her robot jumped the highest.,The robot that jumps the highest wins the competition.,practice,check_2d,,d,2002,B,check,NULL
1759603395,b894630baefe080b7bf6456a7c932fd2,PennController,23,0,check,NULL,PennController,23,_Header_,Start,1759603204608,3,3439,8,... she <span class='highlight'>lost</span> the competition .,... she <span class='highlight'>won</span> the competition.,Well%2C if her robot jumped the highest%2C ...,Oh%2C my friend entered that competition%2C and her robot jumped the highest.,The robot that jumps the highest wins the competition.,practice,check_2d,,d,2002,B,check,NULL
1759603395,b894630baefe080b7bf6456a7c932fd2,PennController,23,0,check,NULL,PennController,23,_Header_,End,1759603204609,3,3439,8,... she <span class='highlight'>lost</span> the competition .,... she <span class='highlight'>won</span> the competition.,Well%2C if her robot jumped the highest%2C ...,Oh%2C my friend entered that competition%2C and her robot jumped the highest.,The robot that jumps the highest wins the competition.,practice,check_2d,,d,2002,B,check,NULL
1759603395,b894630baefe080b7bf6456a7c932fd2,PennController,23,0,check,NULL,Selector,comparison,Selection,a1,1759603212634,3,3439,8,... she <span class='highlight'>lost</span> the competition .,... she <span class='highlight'>won</span> the competition.,Well%2C if her robot jumped the highest%2C ...,Oh%2C my friend entered that competition%2C and her robot jumped the highest.,The robot that jumps the highest wins the competition.,practice,check_2d,,d,2002,B,check,a1;a2
1759603395,b894630baefe080b7bf6456a7c932fd2,PennController,23,0,check,NULL,PennController,23,_Trial_,End,1759603212639,3,3439,8,... she <span class='highlight'>lost</span> the competition .,... she <span class='highlight'>won</span> the competition.,Well%2C if her robot jumped the highest%2C ...,Oh%2C my friend entered that competition%2C and her robot jumped the highest.,The robot that jumps the highest wins the competition.,practice,check_2d,,d,2002,B,check,NULL
1759603395,b894630baefe080b7bf6456a7c932fd2,PennController,19,0,filler,NULL,PennController,19,_Trial_,Start,1759603212641,4,3934,10,... it <span class='highlight'>might have triggered</span> an automatic review.,... it <span class='highlight'>triggered</span> an automatic review.,Well%2C if he spent the entire engagement budget so quickly%2C ...,I heard he used up the entire employee engagement budget in 9 months.,After the audit last week%2C Chris was demoted.,practice,filler_a,,a,1024,B,filler,NULL
1759603395,b894630baefe080b7bf6456a7c932fd2,PennController,19,0,filler,NULL,PennController,19,_Header_,Start,1759603212641,4,3934,10,... it <span class='highlight'>might have triggered</span> an automatic review.,... it <span class='highlight'>triggered</span> an automatic review.,Well%2C if he spent the entire engagement budget so quickly%2C ...,I heard he used up the entire employee engagement budget in 9 months.,After the audit last week%2C Chris was demoted.,practice,filler_a,,a,1024,B,filler,NULL
1759603395,b894630baefe080b7bf6456a7c932fd2,PennController,19,0,filler,NULL,PennController,19,_Header_,End,1759603212641,4,3934,10,... it <span class='highlight'>might have triggered</span> an automatic review.,... it <span class='highlight'>triggered</span> an automatic review.,Well%2C if he spent the entire engagement budget so quickly%2C ...,I heard he used up the entire employee engagement budget in 9 months.,After the audit last week%2C Chris was demoted.,practice,filler_a,,a,1024,B,filler,NULL
1759603395,b894630baefe080b7bf6456a7c932fd2,PennController,19,0,filler,NULL,Selector,comparison,Selection,a2,1759603223535,4,3934,10,... it <span class='highlight'>might have triggered</span> an automatic review.,... it <span class='highlight'>triggered</span> an automatic review.,Well%2C if he spent the entire engagement budget so quickly%2C ...,I heard he used up the entire employee engagement budget in 9 months.,After the audit last week%2C Chris was demoted.,practice,filler_a,,a,1024,B,filler,a2;a1
1759603395,b894630baefe080b7bf6456a7c932fd2,PennController,19,0,filler,NULL,PennController,19,_Trial_,End,1759603223539,4,3934,10,... it <span class='highlight'>might have triggered</span> an automatic review.,... it <span class='highlight'>triggered</span> an automatic review.,Well%2C if he spent the entire engagement budget so quickly%2C ...,I heard he used up the entire employee engagement budget in 9 months.,After the audit last week%2C Chris was demoted.,practice,filler_a,,a,1024,B,filler,NULL
1759603395,b894630baefe080b7bf6456a7c932fd2,PennController,13,0,trial,NULL,PennController,13,_Trial_,Start,1759603223541,5,6608,8,... she <span class='highlight'>must have been required</span> to shower.,... she <span class='highlight'>was probably required</span> to shower.,Well%2C if she was caught wearing perfume%2C ...,Oh%2C my sister is a nurse at that same hospice and she was caught wearing perfume.,At my grandma's hospice%2C employees wearing perfume are required to shower before their shift.,practice,dProb_4,Prob,d,4,B,exp,NULL
1759603395,b894630baefe080b7bf6456a7c932fd2,PennController,13,0,trial,NULL,PennController,13,_Header_,Start,1759603223541,5,6608,8,... she <span class='highlight'>must have been required</span> to shower.,... she <span class='highlight'>was probably required</span> to shower.,Well%2C if she was caught wearing perfume%2C ...,Oh%2C my sister is a nurse at that same hospice and she was caught wearing perfume.,At my grandma's hospice%2C employees wearing perfume are required to shower before their shift.,practice,dProb_4,Prob,d,4,B,exp,NULL
1759603395,b894630baefe080b7bf6456a7c932fd2,PennController,13,0,trial,NULL,PennController,13,_Header_,End,1759603223541,5,6608,8,... she <span class='highlight'>must have been required</span> to shower.,... she <span class='highlight'>was probably required</span> to shower.,Well%2C if she was caught wearing perfume%2C ...,Oh%2C my sister is a nurse at that same hospice and she was caught wearing perfume.,At my grandma's hospice%2C employees wearing perfume are required to shower before their shift.,practice,dProb_4,Prob,d,4,B,exp,NULL
1759603395,b894630baefe080b7bf6456a7c932fd2,PennController,13,0,trial,NULL,Selector,comparison,Selection,a2,1759603235618,5,6608,8,... she <span class='highlight'>must have been required</span> to shower.,... she <span class='highlight'>was probably required</span> to shower.,Well%2C if she was caught wearing perfume%2C ...,Oh%2C my sister is a nurse at that same hospice and she was caught wearing perfume.,At my grandma's hospice%2C employees wearing perfume are required to shower before their shift.,practice,dProb_4,Prob,d,4,B,exp,a2;a1
1759603395,b894630baefe080b7bf6456a7c932fd2,PennController,13,0,trial,NULL,PennController,13,_Trial_,End,1759603235622,5,6608,8,... she <span class='highlight'>must have been required</span> to shower.,... she <span class='highlight'>was probably required</span> to shower.,Well%2C if she was caught wearing perfume%2C ...,Oh%2C my sister is a nurse at that same hospice and she was caught wearing perfume.,At my grandma's hospice%2C employees wearing perfume are required to shower before their shift.,practice,dProb_4,Prob,d,4,B,exp,NULL
1759603395,b894630baefe080b7bf6456a7c932fd2,PennController,22,0,check,NULL,PennController,22,_Trial_,Start,1759603235624,6,3344,7,... the metro <span class='highlight'>was</span> closed. ,... the metro <span class='highlight'>was</span> open. ,Well%2C if it was 2 a.m.%2C ...,Oh%2C I walked past a metro station last night at 2 a.m.,The metro closes at 3 a.m. every night.,practice,check_1d,,d,2001,B,check,NULL
1759603395,b894630baefe080b7bf6456a7c932fd2,PennController,22,0,check,NULL,PennController,22,_Header_,Start,1759603235624,6,3344,7,... the metro <span class='highlight'>was</span> closed. ,... the metro <span class='highlight'>was</span> open. ,Well%2C if it was 2 a.m.%2C ...,Oh%2C I walked past a metro station last night at 2 a.m.,The metro closes at 3 a.m. every night.,practice,check_1d,,d,2001,B,check,NULL
1759603395,b894630baefe080b7bf6456a7c932fd2,PennController,22,0,check,NULL,PennController,22,_Header_,End,1759603235625,6,3344,7,... the metro <span class='highlight'>was</span> closed. ,... the metro <span class='highlight'>was</span> open. ,Well%2C if it was 2 a.m.%2C ...,Oh%2C I walked past a metro station last night at 2 a.m.,The metro closes at 3 a.m. every night.,practice,check_1d,,d,2001,B,check,NULL
1759603395,b894630baefe080b7bf6456a7c932fd2,PennController,22,0,check,NULL,Selector,comparison,Selection,a1,1759603240668,6,3344,7,... the metro <span class='highlight'>was</span> closed. ,... the metro <span class='highlight'>was</span> open. ,Well%2C if it was 2 a.m.%2C ...,Oh%2C I walked past a metro station last night at 2 a.m.,The metro closes at 3 a.m. every night.,practice,check_1d,,d,2001,B,check,a1;a2
1759603395,b894630baefe080b7bf6456a7c932fd2,PennController,22,0,check,NULL,PennController,22,_Trial_,End,1759603240672,6,3344,7,... the metro <span class='highlight'>was</span> closed. ,... the metro <span class='highlight'>was</span> open. ,Well%2C if it was 2 a.m.%2C ...,Oh%2C I walked past a metro station last night at 2 a.m.,The metro closes at 3 a.m. every night.,practice,check_1d,,d,2001,B,check,NULL
1759603395,b894630baefe080b7bf6456a7c932fd2,PennController,9,0,break,NULL,PennController,6,_Trial_,Start,1759603240674,6,3344,7,... the metro <span class='highlight'>was</span> closed. ,... the metro <span class='highlight'>was</span> open. ,Well%2C if it was 2 a.m.%2C ...,Oh%2C I walked past a metro station last night at 2 a.m.,The metro closes at 3 a.m. every night.,practice,check_1d,,d,2001,B,check,NULL
1759603395,b894630baefe080b7bf6456a7c932fd2,PennController,9,0,break,NULL,PennController,6,_Header_,Start,1759603240674,6,3344,7,... the metro <span class='highlight'>was</span> closed. ,... the metro <span class='highlight'>was</span> open. ,Well%2C if it was 2 a.m.%2C ...,Oh%2C I walked past a metro station last night at 2 a.m.,The metro closes at 3 a.m. every night.,practice,check_1d,,d,2001,B,check,NULL
1759603395,b894630baefe080b7bf6456a7c932fd2,PennController,9,0,break,NULL,PennController,6,_Header_,End,1759603240675,6,3344,7,... the metro <span class='highlight'>was</span> closed. ,... the metro <span class='highlight'>was</span> open. ,Well%2C if it was 2 a.m.%2C ...,Oh%2C I walked past a metro station last night at 2 a.m.,The metro closes at 3 a.m. every night.,practice,check_1d,,d,2001,B,check,NULL
1759603395,b894630baefe080b7bf6456a7c932fd2,PennController,9,0,break,NULL,PennController,6,_Trial_,End,1759603241847,6,3344,7,... the metro <span class='highlight'>was</span> closed. ,... the metro <span class='highlight'>was</span> open. ,Well%2C if it was 2 a.m.%2C ...,Oh%2C I walked past a metro station last night at 2 a.m.,The metro closes at 3 a.m. every night.,practice,check_1d,,d,2001,B,check,NULL
1759603395,b894630baefe080b7bf6456a7c932fd2,PennController,18,0,filler,NULL,PennController,18,_Trial_,Start,1759603241848,7,10825,11,... she <span class='highlight'>has to have completed</span> all her gen ed requirements.,... she <span class='highlight'>might have completed</span> all her gen ed requirements.,Well%2C if she got into a study abroad program%2C ...,Oh%2C my friend's in college%2C and she got into a study abroad program.,At my college%2C the study abroad program requires completing all the gen-ed classes.,practice,filler_i,,i,1025,B,filler,NULL
1759603395,b894630baefe080b7bf6456a7c932fd2,PennController,18,0,filler,NULL,PennController,18,_Header_,Start,1759603241848,7,10825,11,... she <span class='highlight'>has to have completed</span> all her gen ed requirements.,... she <span class='highlight'>might have completed</span> all her gen ed requirements.,Well%2C if she got into a study abroad program%2C ...,Oh%2C my friend's in college%2C and she got into a study abroad program.,At my college%2C the study abroad program requires completing all the gen-ed classes.,practice,filler_i,,i,1025,B,filler,NULL
1759603395,b894630baefe080b7bf6456a7c932fd2,PennController,18,0,filler,NULL,PennController,18,_Header_,End,1759603241849,7,10825,11,... she <span class='highlight'>has to have completed</span> all her gen ed requirements.,... she <span class='highlight'>might have completed</span> all her gen ed requirements.,Well%2C if she got into a study abroad program%2C ...,Oh%2C my friend's in college%2C and she got into a study abroad program.,At my college%2C the study abroad program requires completing all the gen-ed classes.,practice,filler_i,,i,1025,B,filler,NULL
1759603395,b894630baefe080b7bf6456a7c932fd2,PennController,18,0,filler,NULL,Selector,comparison,Selection,a2,1759603258919,7,10825,11,... she <span class='highlight'>has to have completed</span> all her gen ed requirements.,... she <span class='highlight'>might have completed</span> all her gen ed requirements.,Well%2C if she got into a study abroad program%2C ...,Oh%2C my friend's in college%2C and she got into a study abroad program.,At my college%2C the study abroad program requires completing all the gen-ed classes.,practice,filler_i,,i,1025,B,filler,a2;a1
1759603395,b894630baefe080b7bf6456a7c932fd2,PennController,18,0,filler,NULL,PennController,18,_Trial_,End,1759603258924,7,10825,11,... she <span class='highlight'>has to have completed</span> all her gen ed requirements.,... she <span class='highlight'>might have completed</span> all her gen ed requirements.,Well%2C if she got into a study abroad program%2C ...,Oh%2C my friend's in college%2C and she got into a study abroad program.,At my college%2C the study abroad program requires completing all the gen-ed classes.,practice,filler_i,,i,1025,B,filler,NULL
1759603395,b894630baefe080b7bf6456a7c932fd2,PennController,15,0,trial,NULL,PennController,15,_Trial_,Start,1759603258926,8,4527,9,... she <span class='highlight'>must have been reported</span> to the Office of Student Conduct.,... she <span class='highlight'>probably was reported</span> to the Office of Student Conduct.,Well%2C if she was caught vaping on campus%2C ...,Oh%2C my sister’s in college%2C and she got caught vaping on campus recently.,At Oakridge College%2C students caught vaping are sent to the Office of Student Conduct.,practice,iProb_6,Prob,i,6,B,exp,NULL
1759603395,b894630baefe080b7bf6456a7c932fd2,PennController,15,0,trial,NULL,PennController,15,_Header_,Start,1759603258926,8,4527,9,... she <span class='highlight'>must have been reported</span> to the Office of Student Conduct.,... she <span class='highlight'>probably was reported</span> to the Office of Student Conduct.,Well%2C if she was caught vaping on campus%2C ...,Oh%2C my sister’s in college%2C and she got caught vaping on campus recently.,At Oakridge College%2C students caught vaping are sent to the Office of Student Conduct.,practice,iProb_6,Prob,i,6,B,exp,NULL
1759603395,b894630baefe080b7bf6456a7c932fd2,PennController,15,0,trial,NULL,PennController,15,_Header_,End,1759603258927,8,4527,9,... she <span class='highlight'>must have been reported</span> to the Office of Student Conduct.,... she <span class='highlight'>probably was reported</span> to the Office of Student Conduct.,Well%2C if she was caught vaping on campus%2C ...,Oh%2C my sister’s in college%2C and she got caught vaping on campus recently.,At Oakridge College%2C students caught vaping are sent to the Office of Student Conduct.,practice,iProb_6,Prob,i,6,B,exp,NULL
1759603395,b894630baefe080b7bf6456a7c932fd2,PennController,15,0,trial,NULL,Selector,comparison,Selection,a2,1759603266935,8,4527,9,... she <span class='highlight'>must have been reported</span> to the Office of Student Conduct.,... she <span class='highlight'>probably was reported</span> to the Office of Student Conduct.,Well%2C if she was caught vaping on campus%2C ...,Oh%2C my sister’s in college%2C and she got caught vaping on campus recently.,At Oakridge College%2C students caught vaping are sent to the Office of Student Conduct.,practice,iProb_6,Prob,i,6,B,exp,a2;a1
1759603395,b894630baefe080b7bf6456a7c932fd2,PennController,15,0,trial,NULL,PennController,15,_Trial_,End,1759603266939,8,4527,9,... she <span class='highlight'>must have been reported</span> to the Office of Student Conduct.,... she <span class='highlight'>probably was reported</span> to the Office of Student Conduct.,Well%2C if she was caught vaping on campus%2C ...,Oh%2C my sister’s in college%2C and she got caught vaping on campus recently.,At Oakridge College%2C students caught vaping are sent to the Office of Student Conduct.,practice,iProb_6,Prob,i,6,B,exp,NULL
1759603395,b894630baefe080b7bf6456a7c932fd2,PennController,20,0,filler,NULL,PennController,20,_Trial_,Start,1759603266942,9,14059,10,... he <span class='highlight'>has to have been pulling</span> overtime.,... he<span class='highlight'>'s been pulling</span> overtime. ,Well%2C if he's got a big project%2C ...,I heard he's working on a big project at work.,Luke’s been coming home really late this week.,practice,filler_a,,a,1023,B,filler,NULL
1759603395,b894630baefe080b7bf6456a7c932fd2,PennController,20,0,filler,NULL,PennController,20,_Header_,Start,1759603266942,9,14059,10,... he <span class='highlight'>has to have been pulling</span> overtime.,... he<span class='highlight'>'s been pulling</span> overtime. ,Well%2C if he's got a big project%2C ...,I heard he's working on a big project at work.,Luke’s been coming home really late this week.,practice,filler_a,,a,1023,B,filler,NULL
1759603395,b894630baefe080b7bf6456a7c932fd2,PennController,20,0,filler,NULL,PennController,20,_Header_,End,1759603266942,9,14059,10,... he <span class='highlight'>has to have been pulling</span> overtime.,... he<span class='highlight'>'s been pulling</span> overtime. ,Well%2C if he's got a big project%2C ...,I heard he's working on a big project at work.,Luke’s been coming home really late this week.,practice,filler_a,,a,1023,B,filler,NULL
1759603395,b894630baefe080b7bf6456a7c932fd2,PennController,20,0,filler,NULL,Selector,comparison,Selection,a1,1759603282968,9,14059,10,... he <span class='highlight'>has to have been pulling</span> overtime.,... he<span class='highlight'>'s been pulling</span> overtime. ,Well%2C if he's got a big project%2C ...,I heard he's working on a big project at work.,Luke’s been coming home really late this week.,practice,filler_a,,a,1023,B,filler,a1;a2
1759603395,b894630baefe080b7bf6456a7c932fd2,PennController,20,0,filler,NULL,PennController,20,_Trial_,End,1759603282974,9,14059,10,... he <span class='highlight'>has to have been pulling</span> overtime.,... he<span class='highlight'>'s been pulling</span> overtime. ,Well%2C if he's got a big project%2C ...,I heard he's working on a big project at work.,Luke’s been coming home really late this week.,practice,filler_a,,a,1023,B,filler,NULL
1759603395,b894630baefe080b7bf6456a7c932fd2,PennController,14,0,trial,NULL,PennController,14,_Trial_,Start,1759603282976,10,5507,9,... she <span class='highlight'>must have signed</span> a non-disclosure agreement.,... she <span class='highlight'>probably signed</span> a non-disclosure agreement.,Well%2C if she won’t tell anyone who her co-stars are%2C ...,I heard she won’t tell anyone who her co-stars are.,Paula got cast for that new Netflix show.,practice,aProb_5,Prob,a,5,B,exp,NULL
1759603395,b894630baefe080b7bf6456a7c932fd2,PennController,14,0,trial,NULL,PennController,14,_Header_,Start,1759603282976,10,5507,9,... she <span class='highlight'>must have signed</span> a non-disclosure agreement.,... she <span class='highlight'>probably signed</span> a non-disclosure agreement.,Well%2C if she won’t tell anyone who her co-stars are%2C ...,I heard she won’t tell anyone who her co-stars are.,Paula got cast for that new Netflix show.,practice,aProb_5,Prob,a,5,B,exp,NULL
1759603395,b894630baefe080b7bf6456a7c932fd2,PennController,14,0,trial,NULL,PennController,14,_Header_,End,1759603282977,10,5507,9,... she <span class='highlight'>must have signed</span> a non-disclosure agreement.,... she <span class='highlight'>probably signed</span> a non-disclosure agreement.,Well%2C if she won’t tell anyone who her co-stars are%2C ...,I heard she won’t tell anyone who her co-stars are.,Paula got cast for that new Netflix show.,practice,aProb_5,Prob,a,5,B,exp,NULL
1759603395,b894630baefe080b7bf6456a7c932fd2,PennController,14,0,trial,NULL,Selector,comparison,Selection,a1,1759603290251,10,5507,9,... she <span class='highlight'>must have signed</span> a non-disclosure agreement.,... she <span class='highlight'>probably signed</span> a non-disclosure agreement.,Well%2C if she won’t tell anyone who her co-stars are%2C ...,I heard she won’t tell anyone who her co-stars are.,Paula got cast for that new Netflix show.,practice,aProb_5,Prob,a,5,B,exp,a1;a2
1759603395,b894630baefe080b7bf6456a7c932fd2,PennController,14,0,trial,NULL,PennController,14,_Trial_,End,1759603290256,10,5507,9,... she <span class='highlight'>must have signed</span> a non-disclosure agreement.,... she <span class='highlight'>probably signed</span> a non-disclosure agreement.,Well%2C if she won’t tell anyone who her co-stars are%2C ...,I heard she won’t tell anyone who her co-stars are.,Paula got cast for that new Netflix show.,practice,aProb_5,Prob,a,5,B,exp,NULL
1759603395,b894630baefe080b7bf6456a7c932fd2,PennController,9,0,break,NULL,PennController,6,_Trial_,Start,1759603290258,10,5507,9,... she <span class='highlight'>must have signed</span> a non-disclosure agreement.,... she <span class='highlight'>probably signed</span> a non-disclosure agreement.,Well%2C if she won’t tell anyone who her co-stars are%2C ...,I heard she won’t tell anyone who her co-stars are.,Paula got cast for that new Netflix show.,practice,aProb_5,Prob,a,5,B,exp,NULL
1759603395,b894630baefe080b7bf6456a7c932fd2,PennController,9,0,break,NULL,PennController,6,_Header_,Start,1759603290258,10,5507,9,... she <span class='highlight'>must have signed</span> a non-disclosure agreement.,... she <span class='highlight'>probably signed</span> a non-disclosure agreement.,Well%2C if she won’t tell anyone who her co-stars are%2C ...,I heard she won’t tell anyone who her co-stars are.,Paula got cast for that new Netflix show.,practice,aProb_5,Prob,a,5,B,exp,NULL
1759603395,b894630baefe080b7bf6456a7c932fd2,PennController,9,0,break,NULL,PennController,6,_Header_,End,1759603290259,10,5507,9,... she <span class='highlight'>must have signed</span> a non-disclosure agreement.,... she <span class='highlight'>probably signed</span> a non-disclosure agreement.,Well%2C if she won’t tell anyone who her co-stars are%2C ...,I heard she won’t tell anyone who her co-stars are.,Paula got cast for that new Netflix show.,practice,aProb_5,Prob,a,5,B,exp,NULL
1759603395,b894630baefe080b7bf6456a7c932fd2,PennController,9,0,break,NULL,PennController,6,_Trial_,End,1759603291678,10,5507,9,... she <span class='highlight'>must have signed</span> a non-disclosure agreement.,... she <span class='highlight'>probably signed</span> a non-disclosure agreement.,Well%2C if she won’t tell anyone who her co-stars are%2C ...,I heard she won’t tell anyone who her co-stars are.,Paula got cast for that new Netflix show.,practice,aProb_5,Prob,a,5,B,exp,NULL
1759603395,b894630baefe080b7bf6456a7c932fd2,PennController,25,0,check,NULL,PennController,25,_Trial_,Start,1759603291680,11,3657,10,... the machine <span class='highlight'>is</span> on.,... the machine <span class='highlight'>is</span> off.,Well%2C if the power light is blue%2C ...,Oh%2C I just checked%2C and the power light is blue.,The machine is on whenever the power light is blue.,practice,check_4d,,d,2004,B,check,NULL
1759603395,b894630baefe080b7bf6456a7c932fd2,PennController,25,0,check,NULL,PennController,25,_Header_,Start,1759603291680,11,3657,10,... the machine <span class='highlight'>is</span> on.,... the machine <span class='highlight'>is</span> off.,Well%2C if the power light is blue%2C ...,Oh%2C I just checked%2C and the power light is blue.,The machine is on whenever the power light is blue.,practice,check_4d,,d,2004,B,check,NULL
1759603395,b894630baefe080b7bf6456a7c932fd2,PennController,25,0,check,NULL,PennController,25,_Header_,End,1759603291681,11,3657,10,... the machine <span class='highlight'>is</span> on.,... the machine <span class='highlight'>is</span> off.,Well%2C if the power light is blue%2C ...,Oh%2C I just checked%2C and the power light is blue.,The machine is on whenever the power light is blue.,practice,check_4d,,d,2004,B,check,NULL
1759603395,b894630baefe080b7bf6456a7c932fd2,PennController,25,0,check,NULL,Selector,comparison,Selection,a2,1759603300434,11,3657,10,... the machine <span class='highlight'>is</span> on.,... the machine <span class='highlight'>is</span> off.,Well%2C if the power light is blue%2C ...,Oh%2C I just checked%2C and the power light is blue.,The machine is on whenever the power light is blue.,practice,check_4d,,d,2004,B,check,a2;a1
1759603395,b894630baefe080b7bf6456a7c932fd2,PennController,25,0,check,NULL,PennController,25,_Trial_,End,1759603300436,11,3657,10,... the machine <span class='highlight'>is</span> on.,... the machine <span class='highlight'>is</span> off.,Well%2C if the power light is blue%2C ...,Oh%2C I just checked%2C and the power light is blue.,The machine is on whenever the power light is blue.,practice,check_4d,,d,2004,B,check,NULL
1759603395,b894630baefe080b7bf6456a7c932fd2,PennController,21,0,filler,NULL,PennController,21,_Trial_,Start,1759603300436,12,12416,3,... the employees <span class='highlight'>have to have gotten</span> a lot of extra work.,... the employees <span class='highlight'>might have gotten</span> a lot of extra work.  ,Well%2C if his lab is being audited%2C ...,I heard the lab he manages is being considered for Humane Research Facility Certification.,Bob’s employees had to work late in the lab yesterday.,practice,filler_a,,a,1022,B,filler,NULL
1759603395,b894630baefe080b7bf6456a7c932fd2,PennController,21,0,filler,NULL,PennController,21,_Header_,Start,1759603300436,12,12416,3,... the employees <span class='highlight'>have to have gotten</span> a lot of extra work.,... the employees <span class='highlight'>might have gotten</span> a lot of extra work.  ,Well%2C if his lab is being audited%2C ...,I heard the lab he manages is being considered for Humane Research Facility Certification.,Bob’s employees had to work late in the lab yesterday.,practice,filler_a,,a,1022,B,filler,NULL
1759603395,b894630baefe080b7bf6456a7c932fd2,PennController,21,0,filler,NULL,PennController,21,_Header_,End,1759603300436,12,12416,3,... the employees <span class='highlight'>have to have gotten</span> a lot of extra work.,... the employees <span class='highlight'>might have gotten</span> a lot of extra work.  ,Well%2C if his lab is being audited%2C ...,I heard the lab he manages is being considered for Humane Research Facility Certification.,Bob’s employees had to work late in the lab yesterday.,practice,filler_a,,a,1022,B,filler,NULL
1759603395,b894630baefe080b7bf6456a7c932fd2,PennController,21,0,filler,NULL,Selector,comparison,Selection,a1,1759603319351,12,12416,3,... the employees <span class='highlight'>have to have gotten</span> a lot of extra work.,... the employees <span class='highlight'>might have gotten</span> a lot of extra work.  ,Well%2C if his lab is being audited%2C ...,I heard the lab he manages is being considered for Humane Research Facility Certification.,Bob’s employees had to work late in the lab yesterday.,practice,filler_a,,a,1022,B,filler,a2;a1
1759603395,b894630baefe080b7bf6456a7c932fd2,PennController,21,0,filler,NULL,PennController,21,_Trial_,End,1759603319356,12,12416,3,... the employees <span class='highlight'>have to have gotten</span> a lot of extra work.,... the employees <span class='highlight'>might have gotten</span> a lot of extra work.  ,Well%2C if his lab is being audited%2C ...,I heard the lab he manages is being considered for Humane Research Facility Certification.,Bob’s employees had to work late in the lab yesterday.,practice,filler_a,,a,1022,B,filler,NULL
1759603395,b894630baefe080b7bf6456a7c932fd2,PennController,12,0,trial,NULL,PennController,12,_Trial_,Start,1759603319358,13,6388,8,... she <span class='highlight'>must have taken</span> first aid training. ,... she <span class='highlight'>probably has taken</span> first aid training. ,Well%2C if your friend is working as a receptionist%2C ...,Oh%2C my friend works at a gym%2C and she's a receptionist there. ,At Apex Fitness%2C all receptionists take a first aid course.,practice,iProb_3,Prob,i,3,B,exp,NULL
1759603395,b894630baefe080b7bf6456a7c932fd2,PennController,12,0,trial,NULL,PennController,12,_Header_,Start,1759603319358,13,6388,8,... she <span class='highlight'>must have taken</span> first aid training. ,... she <span class='highlight'>probably has taken</span> first aid training. ,Well%2C if your friend is working as a receptionist%2C ...,Oh%2C my friend works at a gym%2C and she's a receptionist there. ,At Apex Fitness%2C all receptionists take a first aid course.,practice,iProb_3,Prob,i,3,B,exp,NULL
1759603395,b894630baefe080b7bf6456a7c932fd2,PennController,12,0,trial,NULL,PennController,12,_Header_,End,1759603319358,13,6388,8,... she <span class='highlight'>must have taken</span> first aid training. ,... she <span class='highlight'>probably has taken</span> first aid training. ,Well%2C if your friend is working as a receptionist%2C ...,Oh%2C my friend works at a gym%2C and she's a receptionist there. ,At Apex Fitness%2C all receptionists take a first aid course.,practice,iProb_3,Prob,i,3,B,exp,NULL
1759603395,b894630baefe080b7bf6456a7c932fd2,PennController,12,0,trial,NULL,Selector,comparison,Selection,a2,1759603327168,13,6388,8,... she <span class='highlight'>must have taken</span> first aid training. ,... she <span class='highlight'>probably has taken</span> first aid training. ,Well%2C if your friend is working as a receptionist%2C ...,Oh%2C my friend works at a gym%2C and she's a receptionist there. ,At Apex Fitness%2C all receptionists take a first aid course.,practice,iProb_3,Prob,i,3,B,exp,a2;a1
1759603395,b894630baefe080b7bf6456a7c932fd2,PennController,12,0,trial,NULL,PennController,12,_Trial_,End,1759603327172,13,6388,8,... she <span class='highlight'>must have taken</span> first aid training. ,... she <span class='highlight'>probably has taken</span> first aid training. ,Well%2C if your friend is working as a receptionist%2C ...,Oh%2C my friend works at a gym%2C and she's a receptionist there. ,At Apex Fitness%2C all receptionists take a first aid course.,practice,iProb_3,Prob,i,3,B,exp,NULL
1759603395,b894630baefe080b7bf6456a7c932fd2,PennController,24,0,check,NULL,PennController,24,_Trial_,Start,1759603327174,14,4072,9,... he <span class='highlight'>passed</span> the test.,... he <span class='highlight'>failed</span> the test.,Well%2C if he scored 75%%2C ...,Oh%2C my cousin took the test last week and scored 75%.,You need at least 80% on the final exam to pass the driving test.,practice,check_3d,,d,2003,B,check,NULL
1759603395,b894630baefe080b7bf6456a7c932fd2,PennController,24,0,check,NULL,PennController,24,_Header_,Start,1759603327174,14,4072,9,... he <span class='highlight'>passed</span> the test.,... he <span class='highlight'>failed</span> the test.,Well%2C if he scored 75%%2C ...,Oh%2C my cousin took the test last week and scored 75%.,You need at least 80% on the final exam to pass the driving test.,practice,check_3d,,d,2003,B,check,NULL
1759603395,b894630baefe080b7bf6456a7c932fd2,PennController,24,0,check,NULL,PennController,24,_Header_,End,1759603327175,14,4072,9,... he <span class='highlight'>passed</span> the test.,... he <span class='highlight'>failed</span> the test.,Well%2C if he scored 75%%2C ...,Oh%2C my cousin took the test last week and scored 75%.,You need at least 80% on the final exam to pass the driving test.,practice,check_3d,,d,2003,B,check,NULL
1759603395,b894630baefe080b7bf6456a7c932fd2,PennController,24,0,check,NULL,Selector,comparison,Selection,a1,1759603332933,14,4072,9,... he <span class='highlight'>passed</span> the test.,... he <span class='highlight'>failed</span> the test.,Well%2C if he scored 75%%2C ...,Oh%2C my cousin took the test last week and scored 75%.,You need at least 80% on the final exam to pass the driving test.,practice,check_3d,,d,2003,B,check,a1;a2
1759603395,b894630baefe080b7bf6456a7c932fd2,PennController,24,0,check,NULL,PennController,24,_Trial_,End,1759603332935,14,4072,9,... he <span class='highlight'>passed</span> the test.,... he <span class='highlight'>failed</span> the test.,Well%2C if he scored 75%%2C ...,Oh%2C my cousin took the test last week and scored 75%.,You need at least 80% on the final exam to pass the driving test.,practice,check_3d,,d,2003,B,check,NULL
1759603395,b894630baefe080b7bf6456a7c932fd2,PennController,9,0,break,NULL,PennController,6,_Trial_,Start,1759603332936,14,4072,9,... he <span class='highlight'>passed</span> the test.,... he <span class='highlight'>failed</span> the test.,Well%2C if he scored 75%%2C ...,Oh%2C my cousin took the test last week and scored 75%.,You need at least 80% on the final exam to pass the driving test.,practice,check_3d,,d,2003,B,check,NULL
1759603395,b894630baefe080b7bf6456a7c932fd2,PennController,9,0,break,NULL,PennController,6,_Header_,Start,1759603332936,14,4072,9,... he <span class='highlight'>passed</span> the test.,... he <span class='highlight'>failed</span> the test.,Well%2C if he scored 75%%2C ...,Oh%2C my cousin took the test last week and scored 75%.,You need at least 80% on the final exam to pass the driving test.,practice,check_3d,,d,2003,B,check,NULL
1759603395,b894630baefe080b7bf6456a7c932fd2,PennController,9,0,break,NULL,PennController,6,_Header_,End,1759603332936,14,4072,9,... he <span class='highlight'>passed</span> the test.,... he <span class='highlight'>failed</span> the test.,Well%2C if he scored 75%%2C ...,Oh%2C my cousin took the test last week and scored 75%.,You need at least 80% on the final exam to pass the driving test.,practice,check_3d,,d,2003,B,check,NULL
1759603395,b894630baefe080b7bf6456a7c932fd2,PennController,9,0,break,NULL,PennController,6,_Trial_,End,1759603333786,14,4072,9,... he <span class='highlight'>passed</span> the test.,... he <span class='highlight'>failed</span> the test.,Well%2C if he scored 75%%2C ...,Oh%2C my cousin took the test last week and scored 75%.,You need at least 80% on the final exam to pass the driving test.,practice,check_3d,,d,2003,B,check,NULL
1759603395,b894630baefe080b7bf6456a7c932fd2,PennController,16,0,filler,NULL,PennController,16,_Trial_,Start,1759603333788,15,5792,6,... he <span class='highlight'>might have been suspended</span>.,... he <span class='highlight'>was suspended</span>.,Well%2C if he got caught without his helmet%2C ...,Oh%2C my husband works at another engineering firm%2C and he got caught without his helmet last week.,At my engineering firm%2C employees caught without safety helmets are suspended.,practice,filler_i,,i,1027,B,filler,NULL
1759603395,b894630baefe080b7bf6456a7c932fd2,PennController,16,0,filler,NULL,PennController,16,_Header_,Start,1759603333788,15,5792,6,... he <span class='highlight'>might have been suspended</span>.,... he <span class='highlight'>was suspended</span>.,Well%2C if he got caught without his helmet%2C ...,Oh%2C my husband works at another engineering firm%2C and he got caught without his helmet last week.,At my engineering firm%2C employees caught without safety helmets are suspended.,practice,filler_i,,i,1027,B,filler,NULL
1759603395,b894630baefe080b7bf6456a7c932fd2,PennController,16,0,filler,NULL,PennController,16,_Header_,End,1759603333789,15,5792,6,... he <span class='highlight'>might have been suspended</span>.,... he <span class='highlight'>was suspended</span>.,Well%2C if he got caught without his helmet%2C ...,Oh%2C my husband works at another engineering firm%2C and he got caught without his helmet last week.,At my engineering firm%2C employees caught without safety helmets are suspended.,practice,filler_i,,i,1027,B,filler,NULL
1759603395,b894630baefe080b7bf6456a7c932fd2,PennController,16,0,filler,NULL,Selector,comparison,Selection,a2,1759603343751,15,5792,6,... he <span class='highlight'>might have been suspended</span>.,... he <span class='highlight'>was suspended</span>.,Well%2C if he got caught without his helmet%2C ...,Oh%2C my husband works at another engineering firm%2C and he got caught without his helmet last week.,At my engineering firm%2C employees caught without safety helmets are suspended.,practice,filler_i,,i,1027,B,filler,a2;a1
1759603395,b894630baefe080b7bf6456a7c932fd2,PennController,16,0,filler,NULL,PennController,16,_Trial_,End,1759603343755,15,5792,6,... he <span class='highlight'>might have been suspended</span>.,... he <span class='highlight'>was suspended</span>.,Well%2C if he got caught without his helmet%2C ...,Oh%2C my husband works at another engineering firm%2C and he got caught without his helmet last week.,At my engineering firm%2C employees caught without safety helmets are suspended.,practice,filler_i,,i,1027,B,filler,NULL
1759603395,b894630baefe080b7bf6456a7c932fd2,PennController,11,0,trial,NULL,PennController,11,_Trial_,Start,1759603343756,16,14183,7,... she <span class='highlight'>must have completed</span> ethics training. ,... she <span class='highlight'>probably has completed</span> ethics training. ,Well%2C if she was promoted to the compliance committee%2C ...,Oh yeah? I heard she was promoted to the compliance committee.,Freya is giving us a presentation on corporate ethics tomorrow.,practice,aProb_2,Prob,a,2,B,exp,NULL
1759603395,b894630baefe080b7bf6456a7c932fd2,PennController,11,0,trial,NULL,PennController,11,_Header_,Start,1759603343757,16,14183,7,... she <span class='highlight'>must have completed</span> ethics training. ,... she <span class='highlight'>probably has completed</span> ethics training. ,Well%2C if she was promoted to the compliance committee%2C ...,Oh yeah? I heard she was promoted to the compliance committee.,Freya is giving us a presentation on corporate ethics tomorrow.,practice,aProb_2,Prob,a,2,B,exp,NULL
1759603395,b894630baefe080b7bf6456a7c932fd2,PennController,11,0,trial,NULL,PennController,11,_Header_,End,1759603343757,16,14183,7,... she <span class='highlight'>must have completed</span> ethics training. ,... she <span class='highlight'>probably has completed</span> ethics training. ,Well%2C if she was promoted to the compliance committee%2C ...,Oh yeah? I heard she was promoted to the compliance committee.,Freya is giving us a presentation on corporate ethics tomorrow.,practice,aProb_2,Prob,a,2,B,exp,NULL
1759603395,b894630baefe080b7bf6456a7c932fd2,PennController,11,0,trial,NULL,Selector,comparison,Selection,a1,1759603359350,16,14183,7,... she <span class='highlight'>must have completed</span> ethics training. ,... she <span class='highlight'>probably has completed</span> ethics training. ,Well%2C if she was promoted to the compliance committee%2C ...,Oh yeah? I heard she was promoted to the compliance committee.,Freya is giving us a presentation on corporate ethics tomorrow.,practice,aProb_2,Prob,a,2,B,exp,a1;a2
1759603395,b894630baefe080b7bf6456a7c932fd2,PennController,11,0,trial,NULL,PennController,11,_Trial_,End,1759603359353,16,14183,7,... she <span class='highlight'>must have completed</span> ethics training. ,... she <span class='highlight'>probably has completed</span> ethics training. ,Well%2C if she was promoted to the compliance committee%2C ...,Oh yeah? I heard she was promoted to the compliance committee.,Freya is giving us a presentation on corporate ethics tomorrow.,practice,aProb_2,Prob,a,2,B,exp,NULL
1759603395,b894630baefe080b7bf6456a7c932fd2,PennController,17,0,filler,NULL,PennController,17,_Trial_,Start,1759603359354,17,19745,7,... he <span class='highlight'>has to have been put</span> on academic probation.,... he <span class='highlight'>was put</span> on academic probation.,Well%2C if he missed that many practices%2C ...,Oh%2C my boyfriend is on another lacrosse team%2C and he missed 4 practices.,On my lacrosse team%2C athletes who miss 4 practices are put on academic probation.,practice,filler_i,,i,1026,B,filler,NULL
1759603395,b894630baefe080b7bf6456a7c932fd2,PennController,17,0,filler,NULL,PennController,17,_Header_,Start,1759603359354,17,19745,7,... he <span class='highlight'>has to have been put</span> on academic probation.,... he <span class='highlight'>was put</span> on academic probation.,Well%2C if he missed that many practices%2C ...,Oh%2C my boyfriend is on another lacrosse team%2C and he missed 4 practices.,On my lacrosse team%2C athletes who miss 4 practices are put on academic probation.,practice,filler_i,,i,1026,B,filler,NULL
1759603395,b894630baefe080b7bf6456a7c932fd2,PennController,17,0,filler,NULL,PennController,17,_Header_,End,1759603359354,17,19745,7,... he <span class='highlight'>has to have been put</span> on academic probation.,... he <span class='highlight'>was put</span> on academic probation.,Well%2C if he missed that many practices%2C ...,Oh%2C my boyfriend is on another lacrosse team%2C and he missed 4 practices.,On my lacrosse team%2C athletes who miss 4 practices are put on academic probation.,practice,filler_i,,i,1026,B,filler,NULL
1759603395,b894630baefe080b7bf6456a7c932fd2,PennController,17,0,filler,NULL,Selector,comparison,Selection,a1,1759603380335,17,19745,7,... he <span class='highlight'>has to have been put</span> on academic probation.,... he <span class='highlight'>was put</span> on academic probation.,Well%2C if he missed that many practices%2C ...,Oh%2C my boyfriend is on another lacrosse team%2C and he missed 4 practices.,On my lacrosse team%2C athletes who miss 4 practices are put on academic probation.,practice,filler_i,,i,1026,B,filler,a2;a1
1759603395,b894630baefe080b7bf6456a7c932fd2,PennController,17,0,filler,NULL,PennController,17,_Trial_,End,1759603380339,17,19745,7,... he <span class='highlight'>has to have been put</span> on academic probation.,... he <span class='highlight'>was put</span> on academic probation.,Well%2C if he missed that many practices%2C ...,Oh%2C my boyfriend is on another lacrosse team%2C and he missed 4 practices.,On my lacrosse team%2C athletes who miss 4 practices are put on academic probation.,practice,filler_i,,i,1026,B,filler,NULL
1759603395,b894630baefe080b7bf6456a7c932fd2,PennController,10,0,trial,NULL,PennController,10,_Trial_,Start,1759603380341,18,9528,8,... he <span class='highlight'>must have gotten</span> detention.,... he <span class='highlight'>probably got</span> detention.,Well%2C if he didn’t wear his tie%2C ...,Oh%2C my grandson goes to the same school and I know he didn’t wear his tie this morning.,At my son’s private school%2C students get detention for not wearing a tie.,practice,dProb_1,Prob,d,1,B,exp,NULL
1759603395,b894630baefe080b7bf6456a7c932fd2,PennController,10,0,trial,NULL,PennController,10,_Header_,Start,1759603380341,18,9528,8,... he <span class='highlight'>must have gotten</span> detention.,... he <span class='highlight'>probably got</span> detention.,Well%2C if he didn’t wear his tie%2C ...,Oh%2C my grandson goes to the same school and I know he didn’t wear his tie this morning.,At my son’s private school%2C students get detention for not wearing a tie.,practice,dProb_1,Prob,d,1,B,exp,NULL
1759603395,b894630baefe080b7bf6456a7c932fd2,PennController,10,0,trial,NULL,PennController,10,_Header_,End,1759603380342,18,9528,8,... he <span class='highlight'>must have gotten</span> detention.,... he <span class='highlight'>probably got</span> detention.,Well%2C if he didn’t wear his tie%2C ...,Oh%2C my grandson goes to the same school and I know he didn’t wear his tie this morning.,At my son’s private school%2C students get detention for not wearing a tie.,practice,dProb_1,Prob,d,1,B,exp,NULL
1759603395,b894630baefe080b7bf6456a7c932fd2,PennController,10,0,trial,NULL,Selector,comparison,Selection,a2,1759603395171,18,9528,8,... he <span class='highlight'>must have gotten</span> detention.,... he <span class='highlight'>probably got</span> detention.,Well%2C if he didn’t wear his tie%2C ...,Oh%2C my grandson goes to the same school and I know he didn’t wear his tie this morning.,At my son’s private school%2C students get detention for not wearing a tie.,practice,dProb_1,Prob,d,1,B,exp,a2;a1
1759603395,b894630baefe080b7bf6456a7c932fd2,PennController,10,0,trial,NULL,PennController,10,_Trial_,End,1759603395176,18,9528,8,... he <span class='highlight'>must have gotten</span> detention.,... he <span class='highlight'>probably got</span> detention.,Well%2C if he didn’t wear his tie%2C ...,Oh%2C my grandson goes to the same school and I know he didn’t wear his tie this morning.,At my son’s private school%2C students get detention for not wearing a tie.,practice,dProb_1,Prob,d,1,B,exp,NULL
#
# Results on Sun, 05 Oct 2025 19:22:44 GMT
# USER AGENT: Mozilla/5.0 (Windows NT 10.0; Win64; x64) AppleWebKit/537.36 (KHTML, like Gecko) Chrome/140.0.0.0 Safari/537.36
# Design number was non-random = 2
#
# Columns below this comment are as follows:
# 1. Results reception time.
# 2. MD5 hash of participant's IP address.
# 3. Controller name.
# 4. Order number of item.
# 5. Inner element number.
# 6. Label.
# 7. Latin Square Group.
# 8. PennElementType.
# 9. PennElementName.
# 10. Parameter.
# 11. Value.
# 12. EventTime.
# 13. TrialNumber.
# 14. AnswerRT.
# 15. DialogueRT.
# 16. A2.
# 17. A1.
# 18. D3.
# 19. D2.
# 20. D1.
# 21. Condition.
# 22. ConditionName.
# 23. Answer.
# 24. Inference.
# 25. Item.
# 26. Group.
# 27. Type.
# 28. Comments.
1759692164,dc7f5fd4ecc3d5e848b189c27acbf25e,PennController,1,0,intro,NULL,PennController,0,_Trial_,Start,1759691855411,undefined,undefined,undefined,undefined,undefined,undefined,undefined,undefined,undefined,undefined,undefined,undefined,undefined,undefined,undefined,NULL
1759692164,dc7f5fd4ecc3d5e848b189c27acbf25e,PennController,1,0,intro,NULL,PennController,0,_Header_,Start,1759691855411,undefined,undefined,undefined,undefined,undefined,undefined,undefined,undefined,undefined,undefined,undefined,undefined,undefined,undefined,undefined,NULL
1759692164,dc7f5fd4ecc3d5e848b189c27acbf25e,PennController,1,0,intro,NULL,PennController,0,_Header_,End,1759691855413,undefined,undefined,undefined,undefined,undefined,undefined,undefined,undefined,undefined,undefined,undefined,undefined,undefined,undefined,undefined,NULL
1759692164,dc7f5fd4ecc3d5e848b189c27acbf25e,PennController,1,0,intro,NULL,PennController,0,_Trial_,End,1759691864465,undefined,undefined,undefined,undefined,undefined,undefined,undefined,undefined,undefined,undefined,undefined,undefined,undefined,undefined,undefined,NULL
1759692164,dc7f5fd4ecc3d5e848b189c27acbf25e,PennController,2,0,consent,NULL,PennController,1,_Trial_,Start,1759691864472,undefined,undefined,undefined,undefined,undefined,undefined,undefined,undefined,undefined,undefined,undefined,undefined,undefined,undefined,undefined,NULL
1759692164,dc7f5fd4ecc3d5e848b189c27acbf25e,PennController,2,0,consent,NULL,PennController,1,_Header_,Start,1759691864472,undefined,undefined,undefined,undefined,undefined,undefined,undefined,undefined,undefined,undefined,undefined,undefined,undefined,undefined,undefined,NULL
1759692164,dc7f5fd4ecc3d5e848b189c27acbf25e,PennController,2,0,consent,NULL,PennController,1,_Header_,End,1759691864473,undefined,undefined,undefined,undefined,undefined,undefined,undefined,undefined,undefined,undefined,undefined,undefined,undefined,undefined,undefined,NULL
1759692164,dc7f5fd4ecc3d5e848b189c27acbf25e,PennController,2,0,consent,NULL,PennController,1,_Trial_,End,1759691886719,undefined,undefined,undefined,undefined,undefined,undefined,undefined,undefined,undefined,undefined,undefined,undefined,undefined,undefined,undefined,NULL
1759692164,dc7f5fd4ecc3d5e848b189c27acbf25e,PennController,3,0,demo,NULL,PennController,2,_Trial_,Start,1759691886721,undefined,undefined,undefined,undefined,undefined,undefined,undefined,undefined,undefined,undefined,undefined,undefined,undefined,undefined,undefined,NULL
1759692164,dc7f5fd4ecc3d5e848b189c27acbf25e,PennController,3,0,demo,NULL,PennController,2,_Header_,Start,1759691886721,undefined,undefined,undefined,undefined,undefined,undefined,undefined,undefined,undefined,undefined,undefined,undefined,undefined,undefined,undefined,NULL
1759692164,dc7f5fd4ecc3d5e848b189c27acbf25e,PennController,3,0,demo,NULL,PennController,2,_Header_,End,1759691886721,undefined,undefined,undefined,undefined,undefined,undefined,undefined,undefined,undefined,undefined,undefined,undefined,undefined,undefined,undefined,NULL
1759692164,dc7f5fd4ecc3d5e848b189c27acbf25e,PennController,3,0,demo,NULL,TextInput,age,First,,1759691890039,undefined,undefined,undefined,undefined,undefined,undefined,undefined,undefined,undefined,undefined,undefined,undefined,undefined,undefined,undefined,1
1759692164,dc7f5fd4ecc3d5e848b189c27acbf25e,PennController,3,0,demo,NULL,TextInput,gender,First,,1759691892093,undefined,undefined,undefined,undefined,undefined,undefined,undefined,undefined,undefined,undefined,undefined,undefined,undefined,undefined,undefined,m
1759692164,dc7f5fd4ecc3d5e848b189c27acbf25e,PennController,3,0,demo,NULL,TextInput,geo,First,,1759691895609,undefined,undefined,undefined,undefined,undefined,undefined,undefined,undefined,undefined,undefined,undefined,undefined,undefined,undefined,undefined,Shift
1759692164,dc7f5fd4ecc3d5e848b189c27acbf25e,PennController,3,0,demo,NULL,TextInput,comp,First,,1759691904865,undefined,undefined,undefined,undefined,undefined,undefined,undefined,undefined,undefined,undefined,undefined,undefined,undefined,undefined,undefined,Shift
1759692164,dc7f5fd4ecc3d5e848b189c27acbf25e,PennController,3,0,demo,NULL,TextInput,language,First,,1759691917032,undefined,undefined,undefined,undefined,undefined,undefined,undefined,undefined,undefined,undefined,undefined,undefined,undefined,undefined,undefined,Shift
1759692164,dc7f5fd4ecc3d5e848b189c27acbf25e,PennController,3,0,demo,NULL,TextInput,otherlg,First,,1759691922684,undefined,undefined,undefined,undefined,undefined,undefined,undefined,undefined,undefined,undefined,undefined,undefined,undefined,undefined,undefined,Shift
1759692164,dc7f5fd4ecc3d5e848b189c27acbf25e,PennController,3,0,demo,NULL,TextInput,age,Final,18,1759691929764,undefined,undefined,undefined,undefined,undefined,undefined,undefined,undefined,undefined,undefined,undefined,undefined,undefined,undefined,undefined,NULL
1759692164,dc7f5fd4ecc3d5e848b189c27acbf25e,PennController,3,0,demo,NULL,TextInput,gender,Final,male,1759691929770,undefined,undefined,undefined,undefined,undefined,undefined,undefined,undefined,undefined,undefined,undefined,undefined,undefined,undefined,undefined,NULL
1759692164,dc7f5fd4ecc3d5e848b189c27acbf25e,PennController,3,0,demo,NULL,TextInput,geo,Final,MD%2C USA,1759691929771,undefined,undefined,undefined,undefined,undefined,undefined,undefined,undefined,undefined,undefined,undefined,undefined,undefined,undefined,undefined,NULL
1759692164,dc7f5fd4ecc3d5e848b189c27acbf25e,PennController,3,0,demo,NULL,TextInput,comp,Final,Thinkpad X1 Carbon,1759691929771,undefined,undefined,undefined,undefined,undefined,undefined,undefined,undefined,undefined,undefined,undefined,undefined,undefined,undefined,undefined,NULL
1759692164,dc7f5fd4ecc3d5e848b189c27acbf25e,PennController,3,0,demo,NULL,TextInput,language,Final,English,1759691929771,undefined,undefined,undefined,undefined,undefined,undefined,undefined,undefined,undefined,undefined,undefined,undefined,undefined,undefined,undefined,NULL
1759692164,dc7f5fd4ecc3d5e848b189c27acbf25e,PennController,3,0,demo,NULL,TextInput,otherlg,Final,Mandarin%2C Spanish%2C Japanese%2C Hindi,1759691929771,undefined,undefined,undefined,undefined,undefined,undefined,undefined,undefined,undefined,undefined,undefined,undefined,undefined,undefined,undefined,NULL
1759692164,dc7f5fd4ecc3d5e848b189c27acbf25e,PennController,3,0,demo,NULL,PennController,2,_Trial_,End,1759691929772,undefined,undefined,undefined,undefined,undefined,undefined,undefined,undefined,undefined,undefined,undefined,undefined,undefined,undefined,undefined,NULL
1759692164,dc7f5fd4ecc3d5e848b189c27acbf25e,PennController,4,0,inst-1,NULL,PennController,3,_Trial_,Start,1759691929780,undefined,undefined,undefined,undefined,undefined,undefined,undefined,undefined,undefined,undefined,undefined,undefined,undefined,undefined,undefined,NULL
1759692164,dc7f5fd4ecc3d5e848b189c27acbf25e,PennController,4,0,inst-1,NULL,PennController,3,_Header_,Start,1759691929780,undefined,undefined,undefined,undefined,undefined,undefined,undefined,undefined,undefined,undefined,undefined,undefined,undefined,undefined,undefined,NULL
1759692164,dc7f5fd4ecc3d5e848b189c27acbf25e,PennController,4,0,inst-1,NULL,PennController,3,_Header_,End,1759691929781,undefined,undefined,undefined,undefined,undefined,undefined,undefined,undefined,undefined,undefined,undefined,undefined,undefined,undefined,undefined,NULL
1759692164,dc7f5fd4ecc3d5e848b189c27acbf25e,PennController,4,0,inst-1,NULL,PennController,3,_Trial_,End,1759691945558,undefined,undefined,undefined,undefined,undefined,undefined,undefined,undefined,undefined,undefined,undefined,undefined,undefined,undefined,undefined,NULL
1759692164,dc7f5fd4ecc3d5e848b189c27acbf25e,PennController,5,0,inst-3,NULL,PennController,8,_Trial_,Start,1759691945560,1,14160,19,...the pastries <span class='highlight'>are probably sold out</span> by now.,...the pastries <span class='highlight'>should be sold out</span> by now.,Well%2C if they had a sale this morning%2C and it's already noon%2C ...,My friend said they posted about a big sale this morning.,When the local bakery runs a sale%2C they sell out of pastries quickly.,practice,obvious_example,practice,practice,1002,practice,practice,NULL
1759692164,dc7f5fd4ecc3d5e848b189c27acbf25e,PennController,5,0,inst-3,NULL,PennController,8,_Header_,Start,1759691945560,1,14160,19,...the pastries <span class='highlight'>are probably sold out</span> by now.,...the pastries <span class='highlight'>should be sold out</span> by now.,Well%2C if they had a sale this morning%2C and it's already noon%2C ...,My friend said they posted about a big sale this morning.,When the local bakery runs a sale%2C they sell out of pastries quickly.,practice,obvious_example,practice,practice,1002,practice,practice,NULL
1759692164,dc7f5fd4ecc3d5e848b189c27acbf25e,PennController,5,0,inst-3,NULL,PennController,8,_Header_,End,1759691945561,1,14160,19,...the pastries <span class='highlight'>are probably sold out</span> by now.,...the pastries <span class='highlight'>should be sold out</span> by now.,Well%2C if they had a sale this morning%2C and it's already noon%2C ...,My friend said they posted about a big sale this morning.,When the local bakery runs a sale%2C they sell out of pastries quickly.,practice,obvious_example,practice,practice,1002,practice,practice,NULL
1759692164,dc7f5fd4ecc3d5e848b189c27acbf25e,PennController,5,0,inst-3,NULL,Selector,comparison,Selection,a2,1759691966656,1,14160,19,...the pastries <span class='highlight'>are probably sold out</span> by now.,...the pastries <span class='highlight'>should be sold out</span> by now.,Well%2C if they had a sale this morning%2C and it's already noon%2C ...,My friend said they posted about a big sale this morning.,When the local bakery runs a sale%2C they sell out of pastries quickly.,practice,obvious_example,practice,practice,1002,practice,practice,a2;a1
1759692164,dc7f5fd4ecc3d5e848b189c27acbf25e,PennController,5,0,inst-3,NULL,PennController,8,_Trial_,End,1759691966664,1,14160,19,...the pastries <span class='highlight'>are probably sold out</span> by now.,...the pastries <span class='highlight'>should be sold out</span> by now.,Well%2C if they had a sale this morning%2C and it's already noon%2C ...,My friend said they posted about a big sale this morning.,When the local bakery runs a sale%2C they sell out of pastries quickly.,practice,obvious_example,practice,practice,1002,practice,practice,NULL
1759692164,dc7f5fd4ecc3d5e848b189c27acbf25e,PennController,6,0,inst-4,NULL,PennController,4,_Trial_,Start,1759691966672,1,14160,19,...the pastries <span class='highlight'>are probably sold out</span> by now.,...the pastries <span class='highlight'>should be sold out</span> by now.,Well%2C if they had a sale this morning%2C and it's already noon%2C ...,My friend said they posted about a big sale this morning.,When the local bakery runs a sale%2C they sell out of pastries quickly.,practice,obvious_example,practice,practice,1002,practice,practice,NULL
1759692164,dc7f5fd4ecc3d5e848b189c27acbf25e,PennController,6,0,inst-4,NULL,PennController,4,_Header_,Start,1759691966672,1,14160,19,...the pastries <span class='highlight'>are probably sold out</span> by now.,...the pastries <span class='highlight'>should be sold out</span> by now.,Well%2C if they had a sale this morning%2C and it's already noon%2C ...,My friend said they posted about a big sale this morning.,When the local bakery runs a sale%2C they sell out of pastries quickly.,practice,obvious_example,practice,practice,1002,practice,practice,NULL
1759692164,dc7f5fd4ecc3d5e848b189c27acbf25e,PennController,6,0,inst-4,NULL,PennController,4,_Header_,End,1759691966673,1,14160,19,...the pastries <span class='highlight'>are probably sold out</span> by now.,...the pastries <span class='highlight'>should be sold out</span> by now.,Well%2C if they had a sale this morning%2C and it's already noon%2C ...,My friend said they posted about a big sale this morning.,When the local bakery runs a sale%2C they sell out of pastries quickly.,practice,obvious_example,practice,practice,1002,practice,practice,NULL
1759692164,dc7f5fd4ecc3d5e848b189c27acbf25e,PennController,6,0,inst-4,NULL,PennController,4,_Trial_,End,1759691969326,1,14160,19,...the pastries <span class='highlight'>are probably sold out</span> by now.,...the pastries <span class='highlight'>should be sold out</span> by now.,Well%2C if they had a sale this morning%2C and it's already noon%2C ...,My friend said they posted about a big sale this morning.,When the local bakery runs a sale%2C they sell out of pastries quickly.,practice,obvious_example,practice,practice,1002,practice,practice,NULL
1759692164,dc7f5fd4ecc3d5e848b189c27acbf25e,PennController,7,0,inst-5,NULL,PennController,9,_Trial_,Start,1759691969328,2,3344,11,...the parking lot <span class='highlight'>is probably filled up</span> by now.,...the parking lot <span class='highlight'>should be filled up</span> by now.,Well%2C if it was sunny this morning%2C and it's already 2pm%2C ...,My friend said it was beautiful weather this morning.,When it's sunny and warm%2C the beach parking lot fills up fast.,practice,negobvious_example,practice,practice,1001,practice,practice,NULL
1759692164,dc7f5fd4ecc3d5e848b189c27acbf25e,PennController,7,0,inst-5,NULL,PennController,9,_Header_,Start,1759691969328,2,3344,11,...the parking lot <span class='highlight'>is probably filled up</span> by now.,...the parking lot <span class='highlight'>should be filled up</span> by now.,Well%2C if it was sunny this morning%2C and it's already 2pm%2C ...,My friend said it was beautiful weather this morning.,When it's sunny and warm%2C the beach parking lot fills up fast.,practice,negobvious_example,practice,practice,1001,practice,practice,NULL
1759692164,dc7f5fd4ecc3d5e848b189c27acbf25e,PennController,7,0,inst-5,NULL,PennController,9,_Header_,End,1759691969329,2,3344,11,...the parking lot <span class='highlight'>is probably filled up</span> by now.,...the parking lot <span class='highlight'>should be filled up</span> by now.,Well%2C if it was sunny this morning%2C and it's already 2pm%2C ...,My friend said it was beautiful weather this morning.,When it's sunny and warm%2C the beach parking lot fills up fast.,practice,negobvious_example,practice,practice,1001,practice,practice,NULL
1759692164,dc7f5fd4ecc3d5e848b189c27acbf25e,PennController,7,0,inst-5,NULL,Selector,comparison,Selection,a2,1759691990243,2,3344,11,...the parking lot <span class='highlight'>is probably filled up</span> by now.,...the parking lot <span class='highlight'>should be filled up</span> by now.,Well%2C if it was sunny this morning%2C and it's already 2pm%2C ...,My friend said it was beautiful weather this morning.,When it's sunny and warm%2C the beach parking lot fills up fast.,practice,negobvious_example,practice,practice,1001,practice,practice,a1;a2
1759692164,dc7f5fd4ecc3d5e848b189c27acbf25e,PennController,7,0,inst-5,NULL,PennController,9,_Trial_,End,1759691990250,2,3344,11,...the parking lot <span class='highlight'>is probably filled up</span> by now.,...the parking lot <span class='highlight'>should be filled up</span> by now.,Well%2C if it was sunny this morning%2C and it's already 2pm%2C ...,My friend said it was beautiful weather this morning.,When it's sunny and warm%2C the beach parking lot fills up fast.,practice,negobvious_example,practice,practice,1001,practice,practice,NULL
1759692164,dc7f5fd4ecc3d5e848b189c27acbf25e,PennController,8,0,exp-start,NULL,PennController,5,_Trial_,Start,1759691990252,2,3344,11,...the parking lot <span class='highlight'>is probably filled up</span> by now.,...the parking lot <span class='highlight'>should be filled up</span> by now.,Well%2C if it was sunny this morning%2C and it's already 2pm%2C ...,My friend said it was beautiful weather this morning.,When it's sunny and warm%2C the beach parking lot fills up fast.,practice,negobvious_example,practice,practice,1001,practice,practice,NULL
1759692164,dc7f5fd4ecc3d5e848b189c27acbf25e,PennController,8,0,exp-start,NULL,PennController,5,_Header_,Start,1759691990252,2,3344,11,...the parking lot <span class='highlight'>is probably filled up</span> by now.,...the parking lot <span class='highlight'>should be filled up</span> by now.,Well%2C if it was sunny this morning%2C and it's already 2pm%2C ...,My friend said it was beautiful weather this morning.,When it's sunny and warm%2C the beach parking lot fills up fast.,practice,negobvious_example,practice,practice,1001,practice,practice,NULL
1759692164,dc7f5fd4ecc3d5e848b189c27acbf25e,PennController,8,0,exp-start,NULL,PennController,5,_Header_,End,1759691990252,2,3344,11,...the parking lot <span class='highlight'>is probably filled up</span> by now.,...the parking lot <span class='highlight'>should be filled up</span> by now.,Well%2C if it was sunny this morning%2C and it's already 2pm%2C ...,My friend said it was beautiful weather this morning.,When it's sunny and warm%2C the beach parking lot fills up fast.,practice,negobvious_example,practice,practice,1001,practice,practice,NULL
1759692164,dc7f5fd4ecc3d5e848b189c27acbf25e,PennController,8,0,exp-start,NULL,PennController,5,_Trial_,End,1759691991649,2,3344,11,...the parking lot <span class='highlight'>is probably filled up</span> by now.,...the parking lot <span class='highlight'>should be filled up</span> by now.,Well%2C if it was sunny this morning%2C and it's already 2pm%2C ...,My friend said it was beautiful weather this morning.,When it's sunny and warm%2C the beach parking lot fills up fast.,practice,negobvious_example,practice,practice,1001,practice,practice,NULL
1759692164,dc7f5fd4ecc3d5e848b189c27acbf25e,PennController,22,0,check,NULL,PennController,22,_Trial_,Start,1759691991651,3,8282,16,... the metro <span class='highlight'>was</span> closed. ,... the metro <span class='highlight'>was</span> open. ,Well%2C if it was 2 a.m.%2C ...,Oh%2C I walked past a metro station last night at 2 a.m.,The metro closes at 3 a.m. every night.,practice,check_1d,,d,2001,C,check,NULL
1759692164,dc7f5fd4ecc3d5e848b189c27acbf25e,PennController,22,0,check,NULL,PennController,22,_Header_,Start,1759691991651,3,8282,16,... the metro <span class='highlight'>was</span> closed. ,... the metro <span class='highlight'>was</span> open. ,Well%2C if it was 2 a.m.%2C ...,Oh%2C I walked past a metro station last night at 2 a.m.,The metro closes at 3 a.m. every night.,practice,check_1d,,d,2001,C,check,NULL
1759692164,dc7f5fd4ecc3d5e848b189c27acbf25e,PennController,22,0,check,NULL,PennController,22,_Header_,End,1759691991652,3,8282,16,... the metro <span class='highlight'>was</span> closed. ,... the metro <span class='highlight'>was</span> open. ,Well%2C if it was 2 a.m.%2C ...,Oh%2C I walked past a metro station last night at 2 a.m.,The metro closes at 3 a.m. every night.,practice,check_1d,,d,2001,C,check,NULL
1759692164,dc7f5fd4ecc3d5e848b189c27acbf25e,PennController,22,0,check,NULL,Selector,comparison,Selection,a1,1759692003659,3,8282,16,... the metro <span class='highlight'>was</span> closed. ,... the metro <span class='highlight'>was</span> open. ,Well%2C if it was 2 a.m.%2C ...,Oh%2C I walked past a metro station last night at 2 a.m.,The metro closes at 3 a.m. every night.,practice,check_1d,,d,2001,C,check,a1;a2
1759692164,dc7f5fd4ecc3d5e848b189c27acbf25e,PennController,22,0,check,NULL,PennController,22,_Trial_,End,1759692003667,3,8282,16,... the metro <span class='highlight'>was</span> closed. ,... the metro <span class='highlight'>was</span> open. ,Well%2C if it was 2 a.m.%2C ...,Oh%2C I walked past a metro station last night at 2 a.m.,The metro closes at 3 a.m. every night.,practice,check_1d,,d,2001,C,check,NULL
1759692164,dc7f5fd4ecc3d5e848b189c27acbf25e,PennController,16,0,filler,NULL,PennController,16,_Trial_,Start,1759692003670,4,14430,9,... he <span class='highlight'>might have been suspended</span>.,... he <span class='highlight'>was probably suspended</span>.,Well%2C if he got caught without his helmet%2C ...,Oh%2C my husband works at another engineering firm%2C and he got caught without his helmet last week.,At my engineering firm%2C employees caught without safety helmets are suspended.,practice,filler_i,,i,1027,C,filler,NULL
1759692164,dc7f5fd4ecc3d5e848b189c27acbf25e,PennController,16,0,filler,NULL,PennController,16,_Header_,Start,1759692003670,4,14430,9,... he <span class='highlight'>might have been suspended</span>.,... he <span class='highlight'>was probably suspended</span>.,Well%2C if he got caught without his helmet%2C ...,Oh%2C my husband works at another engineering firm%2C and he got caught without his helmet last week.,At my engineering firm%2C employees caught without safety helmets are suspended.,practice,filler_i,,i,1027,C,filler,NULL
1759692164,dc7f5fd4ecc3d5e848b189c27acbf25e,PennController,16,0,filler,NULL,PennController,16,_Header_,End,1759692003670,4,14430,9,... he <span class='highlight'>might have been suspended</span>.,... he <span class='highlight'>was probably suspended</span>.,Well%2C if he got caught without his helmet%2C ...,Oh%2C my husband works at another engineering firm%2C and he got caught without his helmet last week.,At my engineering firm%2C employees caught without safety helmets are suspended.,practice,filler_i,,i,1027,C,filler,NULL
1759692164,dc7f5fd4ecc3d5e848b189c27acbf25e,PennController,16,0,filler,NULL,Selector,comparison,Selection,a1,1759692020633,4,14430,9,... he <span class='highlight'>might have been suspended</span>.,... he <span class='highlight'>was probably suspended</span>.,Well%2C if he got caught without his helmet%2C ...,Oh%2C my husband works at another engineering firm%2C and he got caught without his helmet last week.,At my engineering firm%2C employees caught without safety helmets are suspended.,practice,filler_i,,i,1027,C,filler,a2;a1
1759692164,dc7f5fd4ecc3d5e848b189c27acbf25e,PennController,16,0,filler,NULL,PennController,16,_Trial_,End,1759692020640,4,14430,9,... he <span class='highlight'>might have been suspended</span>.,... he <span class='highlight'>was probably suspended</span>.,Well%2C if he got caught without his helmet%2C ...,Oh%2C my husband works at another engineering firm%2C and he got caught without his helmet last week.,At my engineering firm%2C employees caught without safety helmets are suspended.,practice,filler_i,,i,1027,C,filler,NULL
1759692164,dc7f5fd4ecc3d5e848b189c27acbf25e,PennController,11,0,trial,NULL,PennController,11,_Trial_,Start,1759692020643,5,7069,5,... she <span class='highlight'>must have completed</span> ethics training.,... she <span class='highlight'>completed</span> ethics training.,Well%2C if she's been there for over two years%2C ...,Oh%2C my wife is a financial advisor at a bank%2C and she’s been there for three years.,At Capital Bank%2C financial advisors do ethics training every two years.,practice,iBare_2,Bare,i,2,C,exp,NULL
1759692164,dc7f5fd4ecc3d5e848b189c27acbf25e,PennController,11,0,trial,NULL,PennController,11,_Header_,Start,1759692020643,5,7069,5,... she <span class='highlight'>must have completed</span> ethics training.,... she <span class='highlight'>completed</span> ethics training.,Well%2C if she's been there for over two years%2C ...,Oh%2C my wife is a financial advisor at a bank%2C and she’s been there for three years.,At Capital Bank%2C financial advisors do ethics training every two years.,practice,iBare_2,Bare,i,2,C,exp,NULL
1759692164,dc7f5fd4ecc3d5e848b189c27acbf25e,PennController,11,0,trial,NULL,PennController,11,_Header_,End,1759692020648,5,7069,5,... she <span class='highlight'>must have completed</span> ethics training.,... she <span class='highlight'>completed</span> ethics training.,Well%2C if she's been there for over two years%2C ...,Oh%2C my wife is a financial advisor at a bank%2C and she’s been there for three years.,At Capital Bank%2C financial advisors do ethics training every two years.,practice,iBare_2,Bare,i,2,C,exp,NULL
1759692164,dc7f5fd4ecc3d5e848b189c27acbf25e,PennController,11,0,trial,NULL,Selector,comparison,Selection,a2,1759692028488,5,7069,5,... she <span class='highlight'>must have completed</span> ethics training.,... she <span class='highlight'>completed</span> ethics training.,Well%2C if she's been there for over two years%2C ...,Oh%2C my wife is a financial advisor at a bank%2C and she’s been there for three years.,At Capital Bank%2C financial advisors do ethics training every two years.,practice,iBare_2,Bare,i,2,C,exp,a2;a1
1759692164,dc7f5fd4ecc3d5e848b189c27acbf25e,PennController,11,0,trial,NULL,PennController,11,_Trial_,End,1759692028496,5,7069,5,... she <span class='highlight'>must have completed</span> ethics training.,... she <span class='highlight'>completed</span> ethics training.,Well%2C if she's been there for over two years%2C ...,Oh%2C my wife is a financial advisor at a bank%2C and she’s been there for three years.,At Capital Bank%2C financial advisors do ethics training every two years.,practice,iBare_2,Bare,i,2,C,exp,NULL
1759692164,dc7f5fd4ecc3d5e848b189c27acbf25e,PennController,21,0,filler,NULL,PennController,21,_Trial_,Start,1759692028500,6,12669,10,... the employees <span class='highlight'>have to have gotten</span> a lot of extra work. ,...the employees <span class='highlight'>might have gotten</span> a lot of extra work.  ,Well%2C if his lab is being audited%2C ...,I heard the lab he manages is being considered for Humane Research Facility Certification.,Bob’s employees had to work late in the lab yesterday.,practice,filler_a,,a,1022,C,filler,NULL
1759692164,dc7f5fd4ecc3d5e848b189c27acbf25e,PennController,21,0,filler,NULL,PennController,21,_Header_,Start,1759692028500,6,12669,10,... the employees <span class='highlight'>have to have gotten</span> a lot of extra work. ,...the employees <span class='highlight'>might have gotten</span> a lot of extra work.  ,Well%2C if his lab is being audited%2C ...,I heard the lab he manages is being considered for Humane Research Facility Certification.,Bob’s employees had to work late in the lab yesterday.,practice,filler_a,,a,1022,C,filler,NULL
1759692164,dc7f5fd4ecc3d5e848b189c27acbf25e,PennController,21,0,filler,NULL,PennController,21,_Header_,End,1759692028500,6,12669,10,... the employees <span class='highlight'>have to have gotten</span> a lot of extra work. ,...the employees <span class='highlight'>might have gotten</span> a lot of extra work.  ,Well%2C if his lab is being audited%2C ...,I heard the lab he manages is being considered for Humane Research Facility Certification.,Bob’s employees had to work late in the lab yesterday.,practice,filler_a,,a,1022,C,filler,NULL
1759692164,dc7f5fd4ecc3d5e848b189c27acbf25e,PennController,21,0,filler,NULL,Selector,comparison,Selection,a1,1759692042453,6,12669,10,... the employees <span class='highlight'>have to have gotten</span> a lot of extra work. ,...the employees <span class='highlight'>might have gotten</span> a lot of extra work.  ,Well%2C if his lab is being audited%2C ...,I heard the lab he manages is being considered for Humane Research Facility Certification.,Bob’s employees had to work late in the lab yesterday.,practice,filler_a,,a,1022,C,filler,a1;a2
1759692164,dc7f5fd4ecc3d5e848b189c27acbf25e,PennController,21,0,filler,NULL,PennController,21,_Trial_,End,1759692042460,6,12669,10,... the employees <span class='highlight'>have to have gotten</span> a lot of extra work. ,...the employees <span class='highlight'>might have gotten</span> a lot of extra work.  ,Well%2C if his lab is being audited%2C ...,I heard the lab he manages is being considered for Humane Research Facility Certification.,Bob’s employees had to work late in the lab yesterday.,practice,filler_a,,a,1022,C,filler,NULL
1759692164,dc7f5fd4ecc3d5e848b189c27acbf25e,PennController,9,0,break,NULL,PennController,6,_Trial_,Start,1759692042462,6,12669,10,... the employees <span class='highlight'>have to have gotten</span> a lot of extra work. ,...the employees <span class='highlight'>might have gotten</span> a lot of extra work.  ,Well%2C if his lab is being audited%2C ...,I heard the lab he manages is being considered for Humane Research Facility Certification.,Bob’s employees had to work late in the lab yesterday.,practice,filler_a,,a,1022,C,filler,NULL
1759692164,dc7f5fd4ecc3d5e848b189c27acbf25e,PennController,9,0,break,NULL,PennController,6,_Header_,Start,1759692042462,6,12669,10,... the employees <span class='highlight'>have to have gotten</span> a lot of extra work. ,...the employees <span class='highlight'>might have gotten</span> a lot of extra work.  ,Well%2C if his lab is being audited%2C ...,I heard the lab he manages is being considered for Humane Research Facility Certification.,Bob’s employees had to work late in the lab yesterday.,practice,filler_a,,a,1022,C,filler,NULL
1759692164,dc7f5fd4ecc3d5e848b189c27acbf25e,PennController,9,0,break,NULL,PennController,6,_Header_,End,1759692042463,6,12669,10,... the employees <span class='highlight'>have to have gotten</span> a lot of extra work. ,...the employees <span class='highlight'>might have gotten</span> a lot of extra work.  ,Well%2C if his lab is being audited%2C ...,I heard the lab he manages is being considered for Humane Research Facility Certification.,Bob’s employees had to work late in the lab yesterday.,practice,filler_a,,a,1022,C,filler,NULL
1759692164,dc7f5fd4ecc3d5e848b189c27acbf25e,PennController,9,0,break,NULL,PennController,6,_Trial_,End,1759692043400,6,12669,10,... the employees <span class='highlight'>have to have gotten</span> a lot of extra work. ,...the employees <span class='highlight'>might have gotten</span> a lot of extra work.  ,Well%2C if his lab is being audited%2C ...,I heard the lab he manages is being considered for Humane Research Facility Certification.,Bob’s employees had to work late in the lab yesterday.,practice,filler_a,,a,1022,C,filler,NULL
1759692164,dc7f5fd4ecc3d5e848b189c27acbf25e,PennController,23,0,check,NULL,PennController,23,_Trial_,Start,1759692043403,7,1483,9,... she <span class='highlight'>lost</span> the competition .,... she <span class='highlight'>won</span> the competition.,Well%2C if her robot jumped the highest%2C ...,Oh%2C my friend entered that competition%2C and her robot jumped the highest.,The robot that jumps the highest wins the competition.,practice,check_2d,,d,2002,C,check,NULL
1759692164,dc7f5fd4ecc3d5e848b189c27acbf25e,PennController,23,0,check,NULL,PennController,23,_Header_,Start,1759692043403,7,1483,9,... she <span class='highlight'>lost</span> the competition .,... she <span class='highlight'>won</span> the competition.,Well%2C if her robot jumped the highest%2C ...,Oh%2C my friend entered that competition%2C and her robot jumped the highest.,The robot that jumps the highest wins the competition.,practice,check_2d,,d,2002,C,check,NULL
1759692164,dc7f5fd4ecc3d5e848b189c27acbf25e,PennController,23,0,check,NULL,PennController,23,_Header_,End,1759692043404,7,1483,9,... she <span class='highlight'>lost</span> the competition .,... she <span class='highlight'>won</span> the competition.,Well%2C if her robot jumped the highest%2C ...,Oh%2C my friend entered that competition%2C and her robot jumped the highest.,The robot that jumps the highest wins the competition.,practice,check_2d,,d,2002,C,check,NULL
1759692164,dc7f5fd4ecc3d5e848b189c27acbf25e,PennController,23,0,check,NULL,Selector,comparison,Selection,a1,1759692048011,7,1483,9,... she <span class='highlight'>lost</span> the competition .,... she <span class='highlight'>won</span> the competition.,Well%2C if her robot jumped the highest%2C ...,Oh%2C my friend entered that competition%2C and her robot jumped the highest.,The robot that jumps the highest wins the competition.,practice,check_2d,,d,2002,C,check,a1;a2
1759692164,dc7f5fd4ecc3d5e848b189c27acbf25e,PennController,23,0,check,NULL,PennController,23,_Trial_,End,1759692048017,7,1483,9,... she <span class='highlight'>lost</span> the competition .,... she <span class='highlight'>won</span> the competition.,Well%2C if her robot jumped the highest%2C ...,Oh%2C my friend entered that competition%2C and her robot jumped the highest.,The robot that jumps the highest wins the competition.,practice,check_2d,,d,2002,C,check,NULL
1759692164,dc7f5fd4ecc3d5e848b189c27acbf25e,PennController,10,0,trial,NULL,PennController,10,_Trial_,Start,1759692048020,8,2334,10,... he <span class='highlight'>must have gotten</span> detention.,... he <span class='highlight'>got</span> detention.,Well%2C if he wasn’t at practice%2C ...,Oh yeah? He missed practice after school today.,I heard John broke the school dress code again.,practice,aBare_1,Bare,a,1,C,exp,NULL
1759692164,dc7f5fd4ecc3d5e848b189c27acbf25e,PennController,10,0,trial,NULL,PennController,10,_Header_,Start,1759692048020,8,2334,10,... he <span class='highlight'>must have gotten</span> detention.,... he <span class='highlight'>got</span> detention.,Well%2C if he wasn’t at practice%2C ...,Oh yeah? He missed practice after school today.,I heard John broke the school dress code again.,practice,aBare_1,Bare,a,1,C,exp,NULL
1759692164,dc7f5fd4ecc3d5e848b189c27acbf25e,PennController,10,0,trial,NULL,PennController,10,_Header_,End,1759692048021,8,2334,10,... he <span class='highlight'>must have gotten</span> detention.,... he <span class='highlight'>got</span> detention.,Well%2C if he wasn’t at practice%2C ...,Oh yeah? He missed practice after school today.,I heard John broke the school dress code again.,practice,aBare_1,Bare,a,1,C,exp,NULL
1759692164,dc7f5fd4ecc3d5e848b189c27acbf25e,PennController,10,0,trial,NULL,Selector,comparison,Selection,a2,1759692054596,8,2334,10,... he <span class='highlight'>must have gotten</span> detention.,... he <span class='highlight'>got</span> detention.,Well%2C if he wasn’t at practice%2C ...,Oh yeah? He missed practice after school today.,I heard John broke the school dress code again.,practice,aBare_1,Bare,a,1,C,exp,a2;a1
1759692164,dc7f5fd4ecc3d5e848b189c27acbf25e,PennController,10,0,trial,NULL,PennController,10,_Trial_,End,1759692054602,8,2334,10,... he <span class='highlight'>must have gotten</span> detention.,... he <span class='highlight'>got</span> detention.,Well%2C if he wasn’t at practice%2C ...,Oh yeah? He missed practice after school today.,I heard John broke the school dress code again.,practice,aBare_1,Bare,a,1,C,exp,NULL
1759692164,dc7f5fd4ecc3d5e848b189c27acbf25e,PennController,18,0,filler,NULL,PennController,18,_Trial_,Start,1759692054604,9,8293,7,... she <span class='highlight'>has to have completed</span> all her gen ed requirements.,... she <span class='highlight'>might have completed</span> all her gen ed requirements.,Well%2C if she got into a study abroad program%2C ...,Oh%2C my friend goes to college%2C and she got into a study abroad program.,At my college%2C the study abroad program requires completing all the gen-ed classes.,practice,filler_i,,i,1025,C,filler,NULL
1759692164,dc7f5fd4ecc3d5e848b189c27acbf25e,PennController,18,0,filler,NULL,PennController,18,_Header_,Start,1759692054604,9,8293,7,... she <span class='highlight'>has to have completed</span> all her gen ed requirements.,... she <span class='highlight'>might have completed</span> all her gen ed requirements.,Well%2C if she got into a study abroad program%2C ...,Oh%2C my friend goes to college%2C and she got into a study abroad program.,At my college%2C the study abroad program requires completing all the gen-ed classes.,practice,filler_i,,i,1025,C,filler,NULL
